subject_ID,age,gender,nationality,exp_part,block_number,trial_number,trial_type,delay,game1_startRT,game1_color,game1_respKey,game1_respRT,game1_outcome,game2_delay_premature,game2_startRT,game2_HP_prob,game2_HP_amount,game2_LP_prob,game2_LP_amount,game2_pos,game2_respKey,game2_respRT,game2_choice,game2_outcome
42,21,female,Portuguese,practice_game1,1,1,practice,na,4697,mixed,j,589,win,0,0,0,0,0,0,na,na,0,na,na
42,21,female,Portuguese,practice_game1,1,2,practice,na,601,mixed,j,377,loss,0,0,0,0,0,0,na,na,0,na,na
42,21,female,Portuguese,practice_game1,1,3,practice,na,550,mixed,f,270,loss,0,0,0,0,0,0,na,na,0,na,na
42,21,female,Portuguese,practice_game1,1,4,practice,na,384,mixed,f,251,win,0,0,0,0,0,0,na,na,0,na,na
42,21,female,Portuguese,practice_game2,2,1,practice,na,0,na,na,0,na,0,1506,0.7,10,0.3,50,HP-LP,f,1682,HP,win
42,21,female,Portuguese,practice_game2,2,2,practice,na,0,na,na,0,na,0,523,0.8,10,0.2,20,HP-LP,f,703,HP,win
42,21,female,Portuguese,practice_game2,2,3,practice,na,0,na,na,0,na,0,474,0.8,20,0.2,30,HP-LP,j,547,LP,no-win
42,21,female,Portuguese,practice_game2,2,4,practice,na,0,na,na,0,na,0,432,0.6,10,0.4,40,HP-LP,f,448,HP,no-win
42,21,female,Portuguese,exp,3,2,exp,yes,2201,mixed,j,659,loss,0,665,0.7,20,0.3,30,LP-HP,j,274,HP,win
42,21,female,Portuguese,exp,3,4,exp,yes,737,mixed,f,1123,win,0,655,0.6,30,0.4,50,HP-LP,f,910,HP,no-win
42,21,female,Portuguese,exp,3,6,catch,no,733,mixed,j,548,win,0,512,0.6,40,0.2,10,LP-HP,j,925,HP,win
42,21,female,Portuguese,exp,3,8,exp,yes,740,mixed,j,916,win,0,1036,0.7,10,0.3,50,LP-HP,j,860,HP,no-win
42,21,female,Portuguese,exp,3,10,exp,no,773,mixed,f,1203,win,0,519,0.6,10,0.4,40,LP-HP,j,1662,HP,win
42,21,female,Portuguese,exp,3,12,exp,no,323,mixed,f,978,loss,0,221,0.8,20,0.2,30,LP-HP,j,846,HP,win
42,21,female,Portuguese,exp,3,14,exp,yes,768,mixed,j,2159,win,0,382,0.7,30,0.3,40,LP-HP,j,720,HP,win
42,21,female,Portuguese,exp,3,16,exp,no,194,mixed,j,686,win,0,291,0.6,10,0.4,40,HP-LP,f,1405,HP,win
42,21,female,Portuguese,exp,3,18,exp,yes,672,mixed,j,783,win,1,542,0.8,20,0.2,30,LP-HP,j,1134,HP,no-win
42,21,female,Portuguese,exp,3,20,exp,no,267,mixed,f,644,loss,0,1251,0.7,10,0.3,50,HP-LP,f,977,HP,win
42,21,female,Portuguese,exp,3,22,exp,yes,522,mixed,j,2730,win,1,431,0.6,30,0.4,50,LP-HP,j,524,HP,no-win
42,21,female,Portuguese,exp,3,24,catch,no,433,mixed,j,541,loss,0,310,0.7,40,0.4,10,LP-HP,j,628,HP,win
42,21,female,Portuguese,exp,3,26,exp,yes,468,mixed,f,1232,loss,0,1625,0.8,20,0.2,30,LP-HP,j,657,HP,win
42,21,female,Portuguese,exp,3,28,exp,yes,1517,mixed,j,888,loss,1,819,0.7,10,0.3,30,LP-HP,j,585,HP,no-win
42,21,female,Portuguese,exp,3,30,exp,no,855,mixed,j,1116,win,0,448,0.7,20,0.3,30,HP-LP,f,897,HP,win
42,21,female,Portuguese,exp,3,32,catch,no,496,mixed,j,676,loss,0,140,0.7,30,0.4,20,LP-HP,j,670,HP,win
42,21,female,Portuguese,exp,3,34,catch,no,230,mixed,f,643,win,0,290,0.6,40,0.2,10,HP-LP,f,1575,HP,win
42,21,female,Portuguese,exp,3,36,exp,no,463,mixed,j,699,loss,0,666,0.6,30,0.4,50,HP-LP,j,1696,LP,win
42,21,female,Portuguese,exp,3,38,exp,yes,583,mixed,j,1003,loss,1,271,0.8,10,0.2,20,LP-HP,j,565,HP,win
42,21,female,Portuguese,exp,3,40,exp,no,309,mixed,f,743,loss,0,503,0.6,10,0.4,40,LP-HP,f,1359,LP,no-win
42,21,female,Portuguese,exp,3,42,exp,no,2201,mixed,j,543,loss,0,2148,0.7,20,0.3,30,HP-LP,f,706,HP,win
42,21,female,Portuguese,exp,3,44,exp,yes,750,mixed,j,679,loss,1,1802,0.7,30,0.3,40,LP-HP,j,590,HP,no-win
42,21,female,Portuguese,exp,3,46,exp,yes,288,mixed,j,613,win,0,2013,0.7,30,0.3,40,HP-LP,f,1356,HP,win
42,21,female,Portuguese,exp,3,48,catch,no,1993,mixed,j,604,win,0,807,0.8,50,0.2,20,LP-HP,j,495,HP,win
42,21,female,Portuguese,exp,3,50,exp,no,564,mixed,j,827,loss,0,1965,0.6,10,0.4,40,HP-LP,j,1357,LP,no-win
42,21,female,Portuguese,exp,4,2,exp,yes,1150,mixed,j,444,loss,0,1715,0.8,20,0.2,30,HP-LP,f,507,HP,win
42,21,female,Portuguese,exp,4,4,exp,yes,473,mixed,j,431,win,2,265,0.6,20,0.4,50,HP-LP,j,333,LP,win
42,21,female,Portuguese,exp,4,6,exp,yes,469,mixed,j,589,win,0,675,0.8,10,0.2,20,HP-LP,f,283,HP,win
42,21,female,Portuguese,exp,4,8,exp,yes,1510,mixed,j,448,loss,1,3609,0.6,40,0.4,50,HP-LP,f,428,HP,no-win
42,21,female,Portuguese,exp,4,10,catch,no,1696,mixed,j,465,loss,0,4644,0.8,50,0.3,30,LP-HP,j,328,HP,no-win
42,21,female,Portuguese,exp,4,12,catch,no,315,mixed,f,311,loss,0,709,0.6,40,0.2,10,LP-HP,j,324,HP,win
42,21,female,Portuguese,exp,4,14,exp,yes,74,mixed,j,360,win,1,263,0.7,20,0.3,30,HP-LP,j,167,LP,no-win
42,21,female,Portuguese,exp,4,16,catch,no,977,mixed,f,510,win,0,3201,0.8,50,0.2,20,HP-LP,j,324,LP,no-win
42,21,female,Portuguese,exp,4,18,exp,yes,4189,mixed,j,659,loss,0,412,0.6,30,0.4,50,HP-LP,f,1677,HP,win
42,21,female,Portuguese,exp,4,20,exp,no,465,mixed,j,391,win,0,929,0.8,10,0.2,20,LP-HP,f,287,LP,no-win
42,21,female,Portuguese,exp,4,22,exp,no,1303,mixed,j,439,win,0,620,0.6,30,0.4,50,HP-LP,f,482,HP,win
42,21,female,Portuguese,exp,4,24,exp,yes,598,mixed,j,473,loss,2,362,0.7,30,0.3,40,HP-LP,f,212,HP,win
42,21,female,Portuguese,exp,4,26,exp,no,254,mixed,j,364,win,0,235,0.7,10,0.3,30,LP-HP,f,180,LP,no-win
42,21,female,Portuguese,exp,4,28,exp,no,584,mixed,j,300,win,0,108,0.7,10,0.3,30,HP-LP,f,308,HP,win
42,21,female,Portuguese,exp,4,30,exp,yes,264,mixed,j,256,loss,1,393,0.6,20,0.4,50,HP-LP,f,202,HP,no-win
42,21,female,Portuguese,exp,4,32,exp,no,735,mixed,j,271,win,0,426,0.6,40,0.4,50,HP-LP,f,677,HP,no-win
42,21,female,Portuguese,exp,4,34,exp,no,320,mixed,j,555,win,0,227,0.8,20,0.2,30,HP-LP,j,547,LP,win
42,21,female,Portuguese,exp,4,36,exp,yes,537,mixed,j,655,win,1,355,0.7,10,0.3,30,HP-LP,j,637,LP,no-win
42,21,female,Portuguese,exp,4,38,exp,no,436,mixed,j,529,win,0,208,0.8,10,0.2,20,HP-LP,f,332,HP,win
42,21,female,Portuguese,exp,4,40,exp,no,91,mixed,j,561,win,0,219,0.7,10,0.3,50,HP-LP,j,434,LP,no-win
42,21,female,Portuguese,exp,4,42,exp,no,307,mixed,j,467,loss,0,245,0.8,10,0.2,20,HP-LP,f,422,HP,no-win
42,21,female,Portuguese,exp,4,44,exp,no,183,mixed,f,559,loss,0,51,0.7,10,0.3,30,LP-HP,j,1112,HP,win
42,21,female,Portuguese,exp,4,46,catch,no,367,mixed,j,457,loss,0,64,0.7,30,0.4,20,HP-LP,f,1692,HP,no-win
42,21,female,Portuguese,exp,4,48,exp,yes,217,mixed,j,490,loss,2,357,0.7,10,0.3,50,HP-LP,j,614,LP,no-win
42,21,female,Portuguese,exp,4,50,catch,no,205,mixed,f,360,win,0,387,0.8,50,0.3,30,LP-HP,j,781,HP,win
42,21,female,Portuguese,exp,5,2,exp,no,351,mixed,f,12680,loss,0,1382,0.6,30,0.4,50,LP-HP,j,448,HP,no-win
42,21,female,Portuguese,exp,5,4,catch,no,286,mixed,f,365,loss,0,234,0.7,40,0.4,10,HP-LP,f,877,HP,win
42,21,female,Portuguese,exp,5,6,catch,no,309,mixed,j,404,loss,0,235,0.6,40,0.2,10,HP-LP,f,654,HP,win
42,21,female,Portuguese,exp,5,8,catch,no,447,mixed,j,298,loss,0,215,0.8,50,0.3,30,HP-LP,f,429,HP,win
42,21,female,Portuguese,exp,5,10,exp,no,369,mixed,f,166,win,0,330,0.6,40,0.4,50,LP-HP,j,1110,HP,win
42,21,female,Portuguese,exp,5,12,exp,yes,130,mixed,j,383,win,1,519,0.6,40,0.4,50,HP-LP,f,660,HP,win
42,21,female,Portuguese,exp,5,14,exp,no,121,mixed,j,259,win,0,235,0.6,20,0.4,50,HP-LP,j,1350,LP,win
42,21,female,Portuguese,exp,5,16,exp,yes,329,mixed,j,359,loss,1,314,0.8,10,0.2,20,HP-LP,j,330,LP,win
42,21,female,Portuguese,exp,5,18,exp,no,277,mixed,f,285,loss,0,372,0.8,10,0.2,20,LP-HP,j,899,HP,win
42,21,female,Portuguese,exp,5,20,exp,no,883,mixed,f,596,loss,0,310,0.8,20,0.2,30,HP-LP,f,680,HP,win
42,21,female,Portuguese,exp,5,22,catch,no,254,mixed,j,521,loss,0,21,0.8,50,0.2,20,HP-LP,f,472,HP,win
42,21,female,Portuguese,exp,5,24,exp,yes,271,mixed,f,310,loss,1,314,0.6,40,0.4,50,LP-HP,j,325,HP,win
42,21,female,Portuguese,exp,5,26,exp,yes,404,mixed,j,241,win,1,326,0.7,10,0.3,50,HP-LP,j,265,LP,no-win
42,21,female,Portuguese,exp,5,28,exp,yes,232,mixed,j,306,loss,1,343,0.7,20,0.3,30,HP-LP,j,255,LP,no-win
42,21,female,Portuguese,exp,5,30,exp,yes,255,mixed,f,341,win,0,501,0.7,10,0.3,30,LP-HP,j,680,HP,win
42,21,female,Portuguese,exp,5,32,exp,no,726,mixed,j,149,win,0,314,0.7,10,0.3,50,LP-HP,f,1343,LP,no-win
42,21,female,Portuguese,exp,5,34,exp,yes,253,mixed,f,144,win,0,541,0.6,20,0.4,50,LP-HP,j,443,HP,no-win
42,21,female,Portuguese,exp,5,36,exp,yes,183,mixed,j,278,win,1,2308,0.6,10,0.4,40,HP-LP,f,614,HP,no-win
42,21,female,Portuguese,exp,5,38,exp,no,434,mixed,f,221,win,0,529,0.6,20,0.4,50,LP-HP,j,675,HP,win
42,21,female,Portuguese,exp,5,40,exp,no,352,mixed,j,452,win,0,358,0.7,30,0.3,40,HP-LP,j,1010,LP,no-win
42,21,female,Portuguese,exp,5,42,exp,yes,396,mixed,f,242,win,1,539,0.8,20,0.2,30,HP-LP,j,1597,LP,win
42,21,female,Portuguese,exp,5,44,exp,no,260,mixed,j,280,loss,0,296,0.7,10,0.3,30,HP-LP,j,1253,LP,no-win
42,21,female,Portuguese,exp,5,46,exp,no,273,mixed,f,1240,win,0,320,0.8,20,0.2,30,LP-HP,j,717,HP,no-win
42,21,female,Portuguese,exp,5,48,catch,no,81,mixed,j,375,win,0,260,0.7,30,0.4,20,LP-HP,f,437,LP,no-win
42,21,female,Portuguese,exp,6,2,exp,no,573,mixed,j,332,loss,0,509,0.7,30,0.3,40,LP-HP,j,714,HP,win
42,21,female,Portuguese,exp,5,50,exp,no,731,mixed,j,552,loss,0,224,0.6,20,0.4,50,HP-LP,j,1093,LP,no-win
42,21,female,Portuguese,exp,6,4,exp,no,540,mixed,j,249,loss,0,188,0.6,40,0.4,50,LP-HP,j,599,HP,win
42,21,female,Portuguese,exp,6,6,catch,no,313,mixed,j,279,win,0,351,0.8,50,0.3,30,HP-LP,j,325,LP,win
42,21,female,Portuguese,exp,6,8,catch,no,319,mixed,f,182,win,0,231,0.7,40,0.4,10,LP-HP,f,143,LP,no-win
42,21,female,Portuguese,exp,6,10,exp,no,260,mixed,j,365,win,0,394,0.6,30,0.4,50,LP-HP,f,730,LP,win
42,21,female,Portuguese,exp,6,12,exp,no,217,mixed,f,130,win,0,551,0.7,30,0.3,40,LP-HP,f,878,LP,no-win
42,21,female,Portuguese,exp,6,14,exp,yes,184,mixed,j,278,win,1,412,0.8,10,0.2,20,LP-HP,j,384,HP,win
42,21,female,Portuguese,exp,6,16,catch,no,393,mixed,f,2901,loss,0,2529,0.8,50,0.2,20,LP-HP,f,159,LP,no-win
42,21,female,Portuguese,exp,6,18,exp,no,344,mixed,f,149,loss,0,561,0.7,10,0.3,50,LP-HP,f,14,LP,no-win
42,21,female,Portuguese,exp,6,20,exp,yes,236,mixed,j,247,loss,5,463,0.6,30,0.4,50,LP-HP,f,3,LP,no-win
42,21,female,Portuguese,exp,6,22,catch,no,621,mixed,j,236,win,0,415,0.7,30,0.4,20,HP-LP,f,311,HP,win
42,21,female,Portuguese,exp,6,24,exp,yes,255,mixed,f,219,loss,1,546,0.7,10,0.3,30,HP-LP,f,389,HP,win
42,21,female,Portuguese,exp,6,26,exp,yes,1533,mixed,j,397,loss,1,652,0.6,20,0.4,50,LP-HP,f,199,LP,win
42,21,female,Portuguese,exp,6,28,exp,no,451,mixed,f,181,loss,0,404,0.7,30,0.3,40,HP-LP,j,610,LP,no-win
42,21,female,Portuguese,exp,6,30,exp,yes,553,mixed,j,232,win,0,611,0.6,10,0.4,40,LP-HP,f,149,LP,win
42,21,female,Portuguese,exp,6,32,exp,no,391,mixed,f,412,loss,0,309,0.7,20,0.3,30,LP-HP,j,399,HP,no-win
42,21,female,Portuguese,exp,6,34,catch,no,346,mixed,j,587,win,0,314,0.7,40,0.4,10,HP-LP,j,587,LP,win
42,21,female,Portuguese,exp,6,36,exp,no,258,mixed,f,544,loss,0,224,0.6,20,0.4,50,LP-HP,j,156,HP,win
42,21,female,Portuguese,exp,6,38,exp,yes,239,mixed,f,1008,loss,1,546,0.6,10,0.4,40,LP-HP,f,173,LP,no-win
42,21,female,Portuguese,exp,6,40,exp,yes,282,mixed,f,449,win,1,494,0.6,40,0.4,50,LP-HP,j,455,HP,no-win
42,21,female,Portuguese,exp,6,42,exp,yes,571,mixed,j,366,loss,0,395,0.6,10,0.4,40,HP-LP,f,213,HP,win
42,21,female,Portuguese,exp,6,44,exp,yes,681,mixed,j,288,win,0,420,0.7,20,0.3,30,LP-HP,j,968,HP,no-win
42,21,female,Portuguese,exp,6,46,exp,no,527,mixed,f,296,win,0,1377,0.7,20,0.3,30,LP-HP,j,209,HP,win
42,21,female,Portuguese,exp,6,48,exp,no,708,mixed,j,486,loss,0,1620,0.6,40,0.4,50,HP-LP,f,264,HP,win
42,21,female,Portuguese,exp,6,50,exp,yes,1012,mixed,j,464,loss,0,565,0.7,10,0.3,50,LP-HP,j,384,HP,win
