subject_ID,age,gender,nationality,exp_part,block_number,trial_number,trial_type,delay,game1_startRT,game1_color,game1_respKey,game1_respRT,game1_outcome,game2_delay_premature,game2_startRT,game2_HP_prob,game2_HP_amount,game2_LP_prob,game2_LP_amount,game2_pos,game2_respKey,game2_respRT,game2_choice,game2_outcome
26,26,female,South African,practice_game1,1,1,practice,na,2374,mixed,j,12845,win,0,0,0,0,0,0,na,na,0,na,na
26,26,female,South African,practice_game1,1,2,practice,na,1356,mixed,f,1447,win,0,0,0,0,0,0,na,na,0,na,na
26,26,female,South African,practice_game1,1,3,practice,na,1596,mixed,f,1664,loss,0,0,0,0,0,0,na,na,0,na,na
26,26,female,South African,practice_game1,1,4,practice,na,1107,mixed,f,1719,loss,0,0,0,0,0,0,na,na,0,na,na
26,26,female,South African,practice_game2,2,1,practice,na,0,na,na,0,na,0,1714,0.6,10,0.4,40,HP-LP,f,2345,HP,win
26,26,female,South African,practice_game2,2,2,practice,na,0,na,na,0,na,0,1474,0.8,20,0.2,30,HP-LP,f,1065,HP,win
26,26,female,South African,practice_game2,2,3,practice,na,0,na,na,0,na,0,653,0.7,10,0.3,50,HP-LP,f,1029,HP,win
26,26,female,South African,practice_game2,2,4,practice,na,0,na,na,0,na,0,946,0.8,10,0.2,20,HP-LP,f,1474,HP,win
26,26,female,South African,exp,3,2,exp,yes,662,mixed,j,1242,win,0,826,0.6,40,0.4,50,LP-HP,j,1413,HP,win
26,26,female,South African,exp,3,4,exp,no,1205,mixed,f,1702,loss,0,982,0.6,20,0.4,50,HP-LP,f,1574,HP,no-win
26,26,female,South African,exp,3,6,exp,yes,1494,mixed,j,5059,loss,0,784,0.7,10,0.3,50,LP-HP,j,1132,HP,no-win
26,26,female,South African,exp,3,8,catch,no,3876,mixed,f,998,win,0,2858,0.8,50,0.2,20,LP-HP,j,833,HP,win
26,26,female,South African,exp,3,10,exp,no,3093,mixed,j,956,win,0,796,0.7,20,0.3,30,LP-HP,j,1087,HP,win
26,26,female,South African,exp,3,12,exp,yes,453,mixed,f,875,loss,1,502,0.7,10,0.3,30,LP-HP,j,725,HP,win
26,26,female,South African,exp,3,14,exp,no,2016,mixed,f,1127,loss,0,1188,0.8,20,0.2,30,HP-LP,f,881,HP,win
26,26,female,South African,exp,3,16,exp,yes,1084,mixed,j,5286,loss,0,524,0.7,30,0.3,40,LP-HP,j,752,HP,win
26,26,female,South African,exp,3,18,exp,no,2265,mixed,f,1149,loss,0,1049,0.6,40,0.4,50,LP-HP,j,782,HP,win
26,26,female,South African,exp,3,20,catch,no,3497,mixed,j,616,loss,0,3828,0.7,30,0.4,20,HP-LP,f,1314,HP,no-win
26,26,female,South African,exp,3,22,catch,no,3565,mixed,j,3224,loss,0,1770,0.7,40,0.4,10,LP-HP,j,1264,HP,win
26,26,female,South African,exp,3,24,exp,no,3848,mixed,j,807,loss,0,886,0.6,30,0.4,50,HP-LP,f,1351,HP,win
26,26,female,South African,exp,3,26,exp,no,1050,mixed,j,1441,loss,0,1668,0.6,10,0.4,40,LP-HP,j,938,HP,win
26,26,female,South African,exp,3,28,exp,no,6228,mixed,f,803,win,0,1685,0.7,10,0.3,30,HP-LP,f,885,HP,win
26,26,female,South African,exp,3,30,catch,no,1648,mixed,j,1004,win,0,4621,0.6,40,0.2,10,LP-HP,j,824,HP,win
26,26,female,South African,exp,3,32,exp,yes,714,mixed,f,654,win,0,678,0.8,10,0.2,20,HP-LP,f,842,HP,no-win
26,26,female,South African,exp,3,34,exp,yes,1205,mixed,j,697,win,0,911,0.6,40,0.4,50,HP-LP,f,1145,HP,no-win
26,26,female,South African,exp,3,36,exp,no,1418,mixed,f,1648,loss,0,497,0.8,20,0.2,30,LP-HP,j,795,HP,win
26,26,female,South African,exp,3,38,exp,yes,574,mixed,j,2348,win,0,439,0.8,20,0.2,30,HP-LP,f,660,HP,win
26,26,female,South African,exp,3,40,exp,no,5127,mixed,j,710,loss,0,918,0.7,10,0.3,50,LP-HP,j,1063,HP,win
26,26,female,South African,exp,3,42,exp,yes,2165,mixed,f,697,win,0,654,0.8,20,0.2,30,LP-HP,j,552,HP,win
26,26,female,South African,exp,3,44,exp,yes,1682,mixed,j,1262,win,0,671,0.6,30,0.4,50,HP-LP,f,988,HP,win
26,26,female,South African,exp,3,46,catch,no,547,mixed,j,888,win,0,2336,0.6,40,0.2,10,HP-LP,f,618,HP,win
26,26,female,South African,exp,3,48,exp,no,917,mixed,j,507,loss,0,907,0.8,10,0.2,20,HP-LP,f,625,HP,win
26,26,female,South African,exp,3,50,exp,no,617,mixed,j,667,win,0,1094,0.8,20,0.2,30,LP-HP,j,1063,HP,win
26,26,female,South African,exp,4,2,exp,yes,3727,mixed,f,1042,win,1,491,0.6,30,0.4,50,LP-HP,j,752,HP,win
26,26,female,South African,exp,4,4,catch,no,350,mixed,f,614,loss,0,529,0.8,50,0.2,20,HP-LP,f,697,HP,win
26,26,female,South African,exp,4,6,exp,no,446,mixed,j,640,win,0,1040,0.7,10,0.3,50,HP-LP,f,707,HP,win
26,26,female,South African,exp,4,8,exp,no,545,mixed,j,765,loss,0,806,0.6,20,0.4,50,LP-HP,j,666,HP,no-win
26,26,female,South African,exp,4,12,exp,no,865,mixed,j,1227,win,0,493,0.7,20,0.3,30,HP-LP,f,714,HP,win
26,26,female,South African,exp,4,14,catch,no,393,mixed,j,543,loss,0,901,0.6,40,0.2,10,HP-LP,f,689,HP,win
26,26,female,South African,exp,4,16,exp,yes,992,mixed,j,662,loss,0,616,0.7,30,0.3,40,HP-LP,f,636,HP,no-win
26,26,female,South African,exp,4,18,exp,yes,874,mixed,j,493,loss,1,558,0.6,40,0.4,50,LP-HP,j,690,HP,no-win
26,26,female,South African,exp,4,20,exp,yes,760,mixed,j,1007,loss,1,550,0.6,30,0.4,50,LP-HP,j,1034,HP,win
26,26,female,South African,exp,4,22,exp,no,688,mixed,f,821,win,0,2724,0.6,30,0.4,50,LP-HP,j,548,HP,win
26,26,female,South African,exp,4,24,exp,yes,924,mixed,f,532,win,1,440,0.7,20,0.3,30,LP-HP,j,530,HP,win
26,26,female,South African,exp,4,26,catch,no,493,mixed,j,733,loss,0,459,0.7,40,0.4,10,HP-LP,f,725,HP,win
26,26,female,South African,exp,4,28,catch,no,463,mixed,j,696,win,0,855,0.7,30,0.4,20,HP-LP,f,632,HP,win
26,26,female,South African,exp,4,30,exp,yes,363,mixed,j,509,loss,1,472,0.7,20,0.3,30,HP-LP,f,676,HP,win
26,26,female,South African,exp,4,32,exp,no,425,mixed,j,588,loss,0,479,0.7,20,0.3,30,HP-LP,f,588,HP,win
26,26,female,South African,exp,4,34,exp,no,2109,mixed,j,603,win,0,2082,0.6,10,0.4,40,HP-LP,f,641,HP,win
26,26,female,South African,exp,4,36,exp,no,521,mixed,j,599,loss,0,551,0.7,30,0.3,40,LP-HP,j,783,HP,win
26,26,female,South African,exp,4,38,exp,yes,1902,mixed,f,599,loss,0,477,0.6,40,0.4,50,HP-LP,f,835,HP,no-win
26,26,female,South African,exp,4,40,exp,no,492,mixed,j,509,win,0,829,0.6,20,0.4,50,LP-HP,j,838,HP,no-win
26,26,female,South African,exp,4,42,exp,no,462,mixed,f,570,loss,0,5220,0.7,30,0.3,40,HP-LP,f,587,HP,win
26,26,female,South African,exp,4,44,exp,no,2435,mixed,j,496,win,0,825,0.6,40,0.4,50,LP-HP,j,1122,HP,win
26,26,female,South African,exp,4,46,exp,yes,502,mixed,f,455,loss,0,452,0.6,10,0.4,40,HP-LP,f,673,HP,win
26,26,female,South African,exp,4,48,exp,no,738,mixed,j,656,win,0,704,0.6,20,0.4,50,HP-LP,f,779,HP,win
26,26,female,South African,exp,4,50,exp,yes,599,mixed,j,552,win,0,1445,0.8,10,0.2,20,LP-HP,j,643,HP,win
26,26,female,South African,exp,5,2,exp,yes,861,mixed,j,663,loss,1,479,0.6,30,0.4,50,HP-LP,f,942,HP,win
26,26,female,South African,exp,5,4,exp,no,602,mixed,j,282,win,0,565,0.6,30,0.4,50,HP-LP,f,665,HP,no-win
26,26,female,South African,exp,5,6,exp,no,666,mixed,j,664,loss,0,3591,0.7,20,0.3,30,LP-HP,j,835,HP,win
26,26,female,South African,exp,5,8,exp,no,867,mixed,f,569,win,0,507,0.7,10,0.3,30,LP-HP,j,713,HP,no-win
26,26,female,South African,exp,5,10,catch,no,455,mixed,f,480,loss,0,365,0.6,40,0.2,10,LP-HP,j,447,HP,win
26,26,female,South African,exp,5,12,exp,yes,983,mixed,j,674,win,1,544,0.7,10,0.3,50,LP-HP,j,547,HP,no-win
26,26,female,South African,exp,5,14,exp,yes,566,mixed,f,404,loss,0,628,0.8,20,0.2,30,LP-HP,j,568,HP,win
26,26,female,South African,exp,5,16,exp,no,1117,mixed,j,573,loss,0,1213,0.7,10,0.3,30,LP-HP,j,568,HP,win
26,26,female,South African,exp,5,18,exp,no,761,mixed,f,674,loss,0,649,0.6,40,0.4,50,HP-LP,f,748,HP,no-win
26,26,female,South African,exp,5,20,catch,no,648,mixed,j,448,loss,0,1062,0.7,30,0.4,20,LP-HP,j,621,HP,win
26,26,female,South African,exp,5,22,exp,no,577,mixed,f,649,win,0,849,0.7,10,0.3,50,LP-HP,j,466,HP,win
26,26,female,South African,exp,5,24,exp,yes,596,mixed,f,591,loss,1,653,0.8,20,0.2,30,HP-LP,f,662,HP,win
26,26,female,South African,exp,5,26,exp,no,453,mixed,j,400,win,0,470,0.8,20,0.2,30,HP-LP,f,486,HP,win
26,26,female,South African,exp,5,28,exp,yes,511,mixed,j,439,win,1,375,0.7,20,0.3,30,HP-LP,f,652,HP,win
26,26,female,South African,exp,5,30,catch,no,615,mixed,f,878,win,0,499,0.7,30,0.4,20,LP-HP,j,566,HP,win
26,26,female,South African,exp,5,32,exp,no,453,mixed,j,953,loss,0,379,0.8,10,0.2,20,LP-HP,j,542,HP,win
26,26,female,South African,exp,5,34,catch,no,467,mixed,f,610,win,0,454,0.8,50,0.3,30,HP-LP,f,685,HP,win
26,26,female,South African,exp,5,36,exp,yes,395,mixed,j,805,loss,0,507,0.7,20,0.3,30,LP-HP,j,589,HP,win
26,26,female,South African,exp,5,38,exp,no,597,mixed,f,460,loss,0,478,0.6,30,0.4,50,LP-HP,j,482,HP,no-win
26,26,female,South African,exp,5,40,catch,no,1002,mixed,f,800,loss,0,9744,0.8,50,0.2,20,LP-HP,j,1251,HP,win
26,26,female,South African,exp,5,42,exp,yes,2410,mixed,f,2726,win,0,2329,0.6,10,0.4,40,LP-HP,j,849,HP,win
26,26,female,South African,exp,5,44,exp,yes,1192,mixed,f,959,win,0,815,0.7,10,0.3,30,LP-HP,j,542,HP,win
26,26,female,South African,exp,5,46,exp,no,778,mixed,f,647,win,0,802,0.6,10,0.4,40,LP-HP,j,1254,HP,no-win
26,26,female,South African,exp,5,48,exp,yes,838,mixed,f,1009,loss,1,1625,0.8,10,0.2,20,HP-LP,f,650,HP,win
26,26,female,South African,exp,5,50,exp,yes,860,mixed,j,491,win,0,816,0.6,20,0.4,50,HP-LP,f,944,HP,no-win
26,26,female,South African,exp,6,2,exp,yes,8279,mixed,f,1358,win,0,1144,0.6,10,0.4,40,HP-LP,f,789,HP,win
26,26,female,South African,exp,6,4,exp,yes,2162,mixed,j,1047,loss,0,745,0.6,10,0.4,40,LP-HP,j,909,HP,no-win
26,26,female,South African,exp,6,6,catch,no,2970,mixed,f,769,win,0,676,0.8,50,0.3,30,LP-HP,j,1207,HP,win
26,26,female,South African,exp,6,8,exp,no,5538,mixed,j,2591,win,0,1864,0.6,40,0.4,50,HP-LP,f,808,HP,win
26,26,female,South African,exp,6,10,catch,no,726,mixed,j,810,win,0,676,0.8,50,0.2,20,HP-LP,f,563,HP,win
26,26,female,South African,exp,6,12,exp,yes,696,mixed,j,355,loss,0,407,0.8,10,0.2,20,LP-HP,j,549,HP,win
26,26,female,South African,exp,6,14,exp,no,608,mixed,f,495,loss,0,390,0.6,10,0.4,40,HP-LP,f,697,HP,no-win
26,26,female,South African,exp,6,16,exp,no,567,mixed,j,782,win,0,1165,0.7,30,0.3,40,HP-LP,f,536,HP,no-win
26,26,female,South African,exp,6,18,exp,no,533,mixed,j,512,loss,0,449,0.7,10,0.3,30,HP-LP,f,648,HP,no-win
26,26,female,South African,exp,6,20,exp,yes,400,mixed,j,519,loss,0,461,0.7,10,0.3,50,HP-LP,f,523,HP,win
26,26,female,South African,exp,6,22,catch,no,361,mixed,j,499,loss,0,455,0.8,50,0.3,30,LP-HP,j,571,HP,win
26,26,female,South African,exp,6,24,exp,yes,439,mixed,f,505,win,1,461,0.7,30,0.3,40,LP-HP,j,424,HP,no-win
26,26,female,South African,exp,6,28,exp,no,443,mixed,j,809,win,0,1201,0.8,10,0.2,20,LP-HP,j,632,HP,win
26,26,female,South African,exp,6,26,exp,yes,481,mixed,f,374,win,0,1496,0.7,10,0.3,50,HP-LP,f,650,HP,no-win
26,26,female,South African,exp,6,30,exp,yes,1393,mixed,f,761,win,0,890,0.6,20,0.4,50,LP-HP,j,1079,HP,win
26,26,female,South African,exp,6,32,exp,yes,3136,mixed,f,1836,loss,0,798,0.6,20,0.4,50,HP-LP,f,1112,HP,no-win
26,26,female,South African,exp,6,34,exp,no,3191,mixed,j,620,loss,0,3608,0.7,10,0.3,50,HP-LP,f,1074,HP,no-win
26,26,female,South African,exp,6,36,catch,no,952,mixed,j,589,win,0,606,0.7,40,0.4,10,HP-LP,f,563,HP,win
26,26,female,South African,exp,6,38,exp,yes,593,mixed,j,431,loss,1,851,0.6,20,0.4,50,LP-HP,f,574,LP,no-win
26,26,female,South African,exp,6,40,catch,no,555,mixed,j,463,loss,0,459,0.8,50,0.3,30,HP-LP,f,595,HP,win
26,26,female,South African,exp,6,42,exp,yes,694,mixed,j,525,win,0,737,0.7,10,0.3,30,HP-LP,f,612,HP,no-win
26,26,female,South African,exp,6,44,exp,yes,1347,mixed,j,494,win,0,960,0.7,30,0.3,40,HP-LP,f,677,HP,no-win
26,26,female,South African,exp,6,46,exp,yes,967,mixed,j,627,loss,0,1047,0.7,10,0.3,30,HP-LP,f,528,HP,win
26,26,female,South African,exp,6,48,exp,no,1702,mixed,j,435,win,0,802,0.8,10,0.2,20,HP-LP,f,413,HP,no-win
26,26,female,South African,exp,6,50,exp,no,748,mixed,j,463,win,0,963,0.7,30,0.3,40,LP-HP,j,747,HP,no-win
