subject_ID,age,gender,nationality,exp_part,block_number,trial_number,trial_type,delay,game1_startRT,game1_color,game1_respKey,game1_respRT,game1_outcome,game2_delay_premature,game2_startRT,game2_HP_prob,game2_HP_amount,game2_LP_prob,game2_LP_amount,game2_pos,game2_respKey,game2_respRT,game2_choice,game2_outcome
14,36,male,Italian,practice_game1,1,1,practice,na,1769,mixed,j,1768,win,0,0,0,0,0,0,na,na,0,na,na
14,36,male,Italian,practice_game1,1,2,practice,na,3153,mixed,f,1635,loss,0,0,0,0,0,0,na,na,0,na,na
14,36,male,Italian,practice_game1,1,3,practice,na,813,mixed,f,848,loss,0,0,0,0,0,0,na,na,0,na,na
14,36,male,Italian,practice_game1,1,4,practice,na,1108,mixed,f,367,win,0,0,0,0,0,0,na,na,0,na,na
14,36,male,Italian,practice_game2,2,1,practice,na,0,na,na,0,na,0,1227,0.8,10,0.2,20,HP-LP,f,1690,HP,win
14,36,male,Italian,practice_game2,2,2,practice,na,0,na,na,0,na,0,653,0.8,20,0.2,30,HP-LP,f,1881,HP,win
14,36,male,Italian,practice_game2,2,3,practice,na,0,na,na,0,na,0,576,0.7,10,0.3,50,HP-LP,j,2310,LP,win
14,36,male,Italian,practice_game2,2,4,practice,na,0,na,na,0,na,0,564,0.6,10,0.4,40,HP-LP,j,2574,LP,win
14,36,male,Italian,exp,3,2,exp,yes,4551,mixed,j,1032,win,0,601,0.6,20,0.4,50,HP-LP,j,3013,LP,no-win
14,36,male,Italian,exp,3,4,catch,no,532,mixed,f,1740,win,0,521,0.8,50,0.3,30,LP-HP,j,1032,HP,win
14,36,male,Italian,exp,3,6,exp,no,483,mixed,f,1891,loss,0,673,0.6,40,0.4,50,LP-HP,j,3818,HP,win
14,36,male,Italian,exp,3,8,exp,no,499,mixed,j,1337,loss,0,463,0.7,10,0.3,30,LP-HP,j,1910,HP,win
14,36,male,Italian,exp,3,10,exp,no,305,mixed,j,1888,loss,0,415,0.6,10,0.4,40,LP-HP,f,1969,LP,no-win
14,36,male,Italian,exp,3,12,exp,yes,371,mixed,f,1138,loss,1,505,0.8,10,0.2,20,HP-LP,f,1209,HP,no-win
14,36,male,Italian,exp,3,14,catch,no,476,mixed,f,1266,loss,0,401,0.8,50,0.3,30,HP-LP,f,1274,HP,win
14,36,male,Italian,exp,3,16,exp,yes,464,mixed,j,920,win,1,566,0.6,10,0.4,40,LP-HP,f,2777,LP,win
14,36,male,Italian,exp,3,18,exp,no,531,mixed,j,1640,win,0,519,0.6,20,0.4,50,LP-HP,f,2567,LP,no-win
14,36,male,Italian,exp,3,20,catch,no,372,mixed,j,1318,win,0,721,0.6,40,0.2,10,HP-LP,f,1563,HP,no-win
14,36,male,Italian,exp,3,22,exp,yes,450,mixed,f,1056,loss,1,525,0.7,10,0.3,50,HP-LP,f,2977,HP,win
14,36,male,Italian,exp,3,24,exp,no,335,mixed,f,1667,loss,0,389,0.6,20,0.4,50,LP-HP,j,943,HP,no-win
14,36,male,Italian,exp,3,26,exp,yes,417,mixed,j,1490,win,1,462,0.7,10,0.3,30,LP-HP,j,1256,HP,win
14,36,male,Italian,exp,3,28,exp,yes,297,mixed,f,1405,win,1,494,0.6,30,0.4,50,HP-LP,f,2404,HP,win
14,36,male,Italian,exp,3,30,exp,yes,507,mixed,j,1427,loss,1,530,0.6,20,0.4,50,LP-HP,f,2153,LP,no-win
14,36,male,Italian,exp,3,32,exp,yes,476,mixed,j,1172,loss,1,468,0.6,10,0.4,40,HP-LP,j,2525,LP,no-win
14,36,male,Italian,exp,3,34,catch,no,504,mixed,j,1634,win,0,461,0.8,50,0.3,30,HP-LP,f,1149,HP,win
14,36,male,Italian,exp,3,36,exp,no,398,mixed,f,1160,win,0,440,0.7,10,0.3,50,HP-LP,f,1934,HP,win
14,36,male,Italian,exp,3,38,exp,yes,380,mixed,j,1017,win,1,854,0.8,10,0.2,20,LP-HP,j,1636,HP,win
14,36,male,Italian,exp,3,40,exp,no,294,mixed,f,1229,loss,0,407,0.6,30,0.4,50,LP-HP,j,2415,HP,win
14,36,male,Italian,exp,3,42,exp,yes,353,mixed,j,1799,win,1,503,0.7,10,0.3,30,HP-LP,f,1703,HP,win
14,36,male,Italian,exp,3,44,exp,yes,330,mixed,f,1181,loss,0,483,0.7,10,0.3,50,LP-HP,j,1142,HP,win
14,36,male,Italian,exp,3,46,exp,yes,368,mixed,j,862,loss,0,591,0.8,10,0.2,20,LP-HP,j,917,HP,win
14,36,male,Italian,exp,3,48,catch,no,581,mixed,f,1453,win,0,481,0.8,50,0.2,20,HP-LP,f,1006,HP,win
14,36,male,Italian,exp,3,50,exp,no,470,mixed,j,1719,loss,0,444,0.7,20,0.3,30,LP-HP,j,1461,HP,win
14,36,male,Italian,exp,4,2,catch,no,593,mixed,j,655,loss,0,467,0.6,40,0.2,10,LP-HP,j,2726,HP,no-win
14,36,male,Italian,exp,4,4,exp,no,422,mixed,j,1267,loss,0,334,0.7,10,0.3,50,LP-HP,j,2291,HP,win
14,36,male,Italian,exp,4,6,exp,yes,326,mixed,f,917,loss,1,436,0.8,20,0.2,30,LP-HP,j,749,HP,win
14,36,male,Italian,exp,4,8,exp,yes,466,mixed,j,806,loss,0,493,0.8,20,0.2,30,HP-LP,f,908,HP,win
14,36,male,Italian,exp,4,10,exp,no,489,mixed,f,609,loss,0,267,0.7,20,0.3,30,HP-LP,f,1178,HP,win
14,36,male,Italian,exp,4,12,exp,no,347,mixed,f,760,loss,0,347,0.7,10,0.3,50,HP-LP,f,937,HP,win
14,36,male,Italian,exp,4,14,catch,no,307,mixed,j,523,win,0,710,0.7,30,0.4,20,LP-HP,j,780,HP,win
14,36,male,Italian,exp,4,16,exp,no,332,mixed,f,1567,win,0,390,0.6,20,0.4,50,HP-LP,j,1775,LP,win
14,36,male,Italian,exp,4,18,exp,yes,354,mixed,j,1037,loss,1,413,0.6,30,0.4,50,LP-HP,f,1136,LP,no-win
14,36,male,Italian,exp,4,20,catch,no,347,mixed,f,890,loss,0,317,0.7,30,0.4,20,LP-HP,j,841,HP,win
14,36,male,Italian,exp,4,22,catch,no,366,mixed,j,517,loss,0,496,0.7,30,0.4,20,HP-LP,f,963,HP,win
14,36,male,Italian,exp,4,24,exp,no,411,mixed,f,366,win,0,507,0.6,40,0.4,50,LP-HP,f,1263,LP,no-win
14,36,male,Italian,exp,4,26,exp,no,292,mixed,f,642,win,0,467,0.7,10,0.3,30,HP-LP,f,1371,HP,win
14,36,male,Italian,exp,4,28,exp,yes,274,mixed,j,1117,win,0,443,0.7,10,0.3,50,HP-LP,f,2267,HP,win
14,36,male,Italian,exp,4,30,exp,no,245,mixed,f,1363,loss,0,389,0.7,30,0.3,40,HP-LP,f,1823,HP,win
14,36,male,Italian,exp,4,32,exp,yes,288,mixed,j,695,win,1,480,0.7,30,0.3,40,HP-LP,f,998,HP,no-win
14,36,male,Italian,exp,4,34,exp,no,236,mixed,f,538,loss,0,287,0.6,40,0.4,50,HP-LP,j,2071,LP,no-win
14,36,male,Italian,exp,4,36,exp,yes,276,mixed,j,782,loss,1,439,0.7,10,0.3,30,LP-HP,j,1869,HP,win
14,36,male,Italian,exp,4,38,catch,no,337,mixed,j,677,loss,0,666,0.8,50,0.2,20,LP-HP,j,849,HP,win
14,36,male,Italian,exp,4,40,exp,yes,275,mixed,j,1428,loss,1,358,0.6,10,0.4,40,LP-HP,f,2263,LP,win
14,36,male,Italian,exp,4,42,exp,yes,252,mixed,f,915,win,0,415,0.6,10,0.4,40,HP-LP,j,1461,LP,no-win
14,36,male,Italian,exp,4,44,exp,no,331,mixed,f,1021,win,0,500,0.7,30,0.3,40,LP-HP,j,875,HP,win
14,36,male,Italian,exp,4,46,exp,yes,260,mixed,j,888,loss,1,413,0.6,40,0.4,50,LP-HP,j,2021,HP,no-win
14,36,male,Italian,exp,4,48,exp,yes,265,mixed,f,1129,win,0,509,0.8,20,0.2,30,LP-HP,j,830,HP,win
14,36,male,Italian,exp,4,50,exp,yes,327,mixed,f,338,win,1,501,0.8,10,0.2,20,HP-LP,f,1670,HP,win
14,36,male,Italian,exp,5,2,catch,no,1240,mixed,j,1287,loss,0,664,0.7,40,0.4,10,LP-HP,j,993,HP,win
14,36,male,Italian,exp,5,4,exp,no,286,mixed,f,909,win,0,380,0.7,10,0.3,50,LP-HP,j,1168,HP,win
14,36,male,Italian,exp,5,6,exp,no,260,mixed,f,660,win,0,337,0.7,20,0.3,30,LP-HP,j,969,HP,win
14,36,male,Italian,exp,5,8,exp,yes,311,mixed,f,636,win,1,380,0.6,30,0.4,50,LP-HP,j,982,HP,no-win
14,36,male,Italian,exp,5,10,exp,yes,279,mixed,f,495,loss,1,431,0.7,10,0.3,30,HP-LP,f,985,HP,win
14,36,male,Italian,exp,5,12,exp,no,336,mixed,f,1546,win,0,416,0.6,10,0.4,40,LP-HP,j,971,HP,win
14,36,male,Italian,exp,5,14,exp,no,310,mixed,f,457,loss,0,325,0.7,30,0.3,40,LP-HP,j,1627,HP,win
14,36,male,Italian,exp,5,16,exp,yes,294,mixed,f,607,win,0,544,0.7,20,0.3,30,LP-HP,j,1194,HP,win
14,36,male,Italian,exp,5,18,exp,no,267,mixed,f,722,loss,0,424,0.6,10,0.4,40,HP-LP,j,2777,LP,no-win
14,36,male,Italian,exp,5,20,exp,no,352,mixed,f,1378,loss,0,266,0.8,10,0.2,20,LP-HP,j,3697,HP,win
14,36,male,Italian,exp,5,22,exp,no,174,mixed,f,661,win,0,314,0.8,20,0.2,30,HP-LP,f,1441,HP,win
14,36,male,Italian,exp,5,24,catch,no,284,mixed,j,1184,loss,0,360,0.8,50,0.3,30,LP-HP,j,968,HP,win
14,36,male,Italian,exp,5,26,exp,yes,355,mixed,j,1675,loss,1,418,0.7,30,0.3,40,HP-LP,f,958,HP,win
14,36,male,Italian,exp,5,28,exp,yes,348,mixed,f,557,win,1,433,0.6,40,0.4,50,LP-HP,f,1449,LP,win
14,36,male,Italian,exp,5,30,exp,yes,271,mixed,f,768,win,1,408,0.8,20,0.2,30,HP-LP,f,993,HP,win
14,36,male,Italian,exp,5,32,catch,no,272,mixed,j,688,win,0,327,0.7,40,0.4,10,LP-HP,j,802,HP,no-win
14,36,male,Italian,exp,5,34,catch,no,250,mixed,f,391,loss,0,456,0.8,50,0.2,20,HP-LP,f,764,HP,win
14,36,male,Italian,exp,5,36,exp,no,268,mixed,f,721,loss,0,307,0.8,20,0.2,30,LP-HP,j,2320,HP,win
14,36,male,Italian,exp,5,38,exp,no,266,mixed,j,528,win,0,374,0.6,40,0.4,50,HP-LP,f,3363,HP,no-win
14,36,male,Italian,exp,5,40,exp,no,238,mixed,f,231,win,0,280,0.7,20,0.3,30,HP-LP,f,1270,HP,win
14,36,male,Italian,exp,5,42,exp,yes,178,mixed,f,366,win,1,351,0.6,20,0.4,50,LP-HP,f,2487,LP,no-win
14,36,male,Italian,exp,5,44,catch,no,278,mixed,j,625,loss,0,402,0.6,40,0.2,10,HP-LP,f,966,HP,win
14,36,male,Italian,exp,5,46,exp,no,262,mixed,f,1048,win,0,504,0.8,20,0.2,30,LP-HP,j,1025,HP,no-win
14,36,male,Italian,exp,5,48,exp,no,260,mixed,j,1556,loss,0,255,0.6,20,0.4,50,HP-LP,j,1663,LP,no-win
14,36,male,Italian,exp,5,50,exp,no,467,mixed,f,887,loss,0,303,0.6,30,0.4,50,HP-LP,f,1655,HP,win
14,36,male,Italian,exp,6,2,exp,yes,391,mixed,j,771,loss,1,472,0.6,20,0.4,50,HP-LP,j,1470,LP,no-win
14,36,male,Italian,exp,6,4,exp,yes,228,mixed,f,535,win,1,463,0.7,10,0.3,50,LP-HP,j,2132,HP,win
14,36,male,Italian,exp,6,6,exp,yes,280,mixed,f,778,loss,1,449,0.6,30,0.4,50,HP-LP,j,1101,LP,no-win
14,36,male,Italian,exp,6,8,exp,yes,272,mixed,f,1291,loss,1,340,0.7,30,0.3,40,LP-HP,j,919,HP,win
14,36,male,Italian,exp,6,10,exp,yes,277,mixed,j,743,loss,1,482,0.6,40,0.4,50,HP-LP,f,1094,HP,no-win
14,36,male,Italian,exp,6,12,exp,yes,524,mixed,j,525,loss,1,731,0.7,20,0.3,30,LP-HP,j,636,HP,no-win
14,36,male,Italian,exp,6,14,catch,no,376,mixed,f,793,win,0,298,0.7,30,0.4,20,HP-LP,f,1171,HP,win
14,36,male,Italian,exp,6,16,exp,no,397,mixed,f,246,loss,0,328,0.7,10,0.3,30,HP-LP,j,1880,LP,win
14,36,male,Italian,exp,6,18,exp,no,255,mixed,f,498,win,0,293,0.7,10,0.3,30,LP-HP,j,1660,HP,win
14,36,male,Italian,exp,6,20,exp,no,267,mixed,f,599,win,0,284,0.7,30,0.3,40,HP-LP,f,874,HP,win
14,36,male,Italian,exp,6,22,catch,no,238,mixed,f,430,win,0,334,0.6,40,0.2,10,LP-HP,j,759,HP,win
14,36,male,Italian,exp,6,24,catch,no,257,mixed,j,1015,loss,0,329,0.7,40,0.4,10,HP-LP,f,785,HP,win
14,36,male,Italian,exp,6,26,exp,yes,272,mixed,f,404,win,1,314,0.6,40,0.4,50,HP-LP,f,1199,HP,no-win
14,36,male,Italian,exp,6,28,exp,no,288,mixed,f,449,loss,0,317,0.8,20,0.2,30,HP-LP,f,1193,HP,no-win
14,36,male,Italian,exp,6,30,exp,no,216,mixed,f,243,loss,0,270,0.8,10,0.2,20,HP-LP,f,767,HP,win
14,36,male,Italian,exp,6,32,exp,no,99,mixed,f,384,win,0,229,0.6,10,0.4,40,HP-LP,j,1356,LP,no-win
14,36,male,Italian,exp,6,34,exp,no,281,mixed,f,396,win,0,308,0.8,10,0.2,20,HP-LP,f,1432,HP,win
14,36,male,Italian,exp,6,36,catch,no,220,mixed,j,924,win,0,299,0.7,40,0.4,10,HP-LP,f,876,HP,win
14,36,male,Italian,exp,6,38,exp,yes,305,mixed,f,709,win,0,440,0.7,30,0.3,40,LP-HP,j,952,HP,win
14,36,male,Italian,exp,6,40,exp,no,242,mixed,f,268,win,0,329,0.6,30,0.4,50,LP-HP,j,1018,HP,win
14,36,male,Italian,exp,6,42,exp,yes,239,mixed,j,273,win,1,499,0.7,20,0.3,30,HP-LP,f,929,HP,no-win
14,36,male,Italian,exp,6,44,exp,no,422,mixed,f,190,win,0,299,0.6,30,0.4,50,HP-LP,f,1081,HP,no-win
14,36,male,Italian,exp,6,46,exp,yes,252,mixed,f,221,loss,1,460,0.7,20,0.3,30,HP-LP,f,832,HP,no-win
14,36,male,Italian,exp,6,48,catch,no,308,mixed,f,258,win,0,315,0.8,50,0.2,20,LP-HP,j,614,HP,win
14,36,male,Italian,exp,6,50,exp,no,271,mixed,f,686,win,0,277,0.8,10,0.2,20,LP-HP,j,1557,HP,win
