subject_ID,age,gender,nationality,exp_part,block_number,trial_number,trial_type,delay,game1_startRT,game1_color,game1_respKey,game1_respRT,game1_outcome,game2_delay_premature,game2_startRT,game2_HP_prob,game2_HP_amount,game2_LP_prob,game2_LP_amount,game2_pos,game2_respKey,game2_respRT,game2_choice,game2_outcome
10,27,male,Polish,practice_game1,1,1,practice,na,1351,mixed,f,1179,loss,0,0,0,0,0,0,na,na,0,na,na
10,27,male,Polish,practice_game1,1,2,practice,na,975,mixed,j,867,loss,0,0,0,0,0,0,na,na,0,na,na
10,27,male,Polish,practice_game1,1,3,practice,na,763,mixed,j,553,win,0,0,0,0,0,0,na,na,0,na,na
10,27,male,Polish,practice_game1,1,4,practice,na,602,mixed,f,451,win,0,0,0,0,0,0,na,na,0,na,na
10,27,male,Polish,practice_game2,2,1,practice,na,0,na,na,0,na,0,1004,0.7,10,0.3,50,HP-LP,f,1375,HP,win
10,27,male,Polish,practice_game2,2,2,practice,na,0,na,na,0,na,0,1023,0.8,20,0.2,30,HP-LP,f,1129,HP,win
10,27,male,Polish,practice_game2,2,3,practice,na,0,na,na,0,na,0,501,0.6,10,0.4,40,HP-LP,j,2145,LP,no-win
10,27,male,Polish,practice_game2,2,4,practice,na,0,na,na,0,na,0,1011,0.8,10,0.2,20,HP-LP,f,1140,HP,win
10,27,male,Polish,exp,3,2,exp,yes,1340,mixed,f,1284,loss,0,713,0.7,30,0.3,40,LP-HP,f,480,LP,win
10,27,male,Polish,exp,3,4,catch,no,2462,mixed,j,1821,win,0,1115,0.8,50,0.2,20,HP-LP,f,1301,HP,no-win
10,27,male,Polish,exp,3,6,exp,yes,750,mixed,j,1050,win,0,1193,0.7,20,0.3,30,HP-LP,f,1369,HP,win
10,27,male,Polish,exp,3,8,exp,yes,920,mixed,f,753,win,0,1053,0.8,10,0.2,20,HP-LP,f,1061,HP,win
10,27,male,Polish,exp,3,10,exp,no,2243,mixed,j,1100,win,0,2054,0.6,30,0.4,50,LP-HP,f,1157,LP,no-win
10,27,male,Polish,exp,3,12,exp,no,1132,mixed,f,1141,win,0,1557,0.7,10,0.3,50,HP-LP,j,2755,LP,no-win
10,27,male,Polish,exp,3,14,exp,yes,1582,mixed,j,873,win,0,706,0.6,40,0.4,50,HP-LP,j,1734,LP,win
10,27,male,Polish,exp,3,16,exp,yes,1286,mixed,j,958,win,0,497,0.8,20,0.2,30,LP-HP,j,850,HP,win
10,27,male,Polish,exp,3,18,exp,no,1397,mixed,f,565,win,0,1815,0.6,20,0.4,50,HP-LP,j,1443,LP,win
10,27,male,Polish,exp,3,20,exp,yes,2042,mixed,j,1124,loss,0,533,0.7,10,0.3,30,LP-HP,j,999,HP,win
10,27,male,Polish,exp,3,22,catch,no,1107,mixed,f,816,loss,0,2307,0.7,30,0.4,20,HP-LP,f,1427,HP,win
10,27,male,Polish,exp,3,24,exp,no,1297,mixed,f,565,win,0,1941,0.7,10,0.3,30,HP-LP,f,1455,HP,win
10,27,male,Polish,exp,3,26,exp,yes,596,mixed,j,399,win,0,360,0.6,30,0.4,50,HP-LP,j,1072,LP,no-win
10,27,male,Polish,exp,3,28,exp,no,557,mixed,j,348,win,0,1284,0.7,20,0.3,30,HP-LP,f,1027,HP,win
10,27,male,Polish,exp,3,30,exp,yes,869,mixed,f,890,win,0,731,0.7,10,0.3,50,HP-LP,j,1288,LP,no-win
10,27,male,Polish,exp,3,32,catch,no,701,mixed,f,890,win,0,1076,0.7,30,0.4,20,HP-LP,f,1301,HP,no-win
10,27,male,Polish,exp,3,34,catch,no,549,mixed,f,542,win,0,1163,0.8,50,0.2,20,LP-HP,j,610,HP,win
10,27,male,Polish,exp,3,36,exp,yes,693,mixed,j,1449,loss,0,2006,0.6,20,0.4,50,HP-LP,j,1512,LP,win
10,27,male,Polish,exp,3,38,exp,yes,781,mixed,j,529,loss,0,641,0.8,10,0.2,20,HP-LP,f,815,HP,win
10,27,male,Polish,exp,3,40,exp,no,689,mixed,j,354,loss,0,958,0.8,10,0.2,20,HP-LP,f,1061,HP,win
10,27,male,Polish,exp,3,42,exp,no,1193,mixed,j,375,win,0,1404,0.6,10,0.4,40,HP-LP,j,1175,LP,win
10,27,male,Polish,exp,3,44,exp,no,608,mixed,f,753,loss,0,1211,0.7,20,0.3,30,HP-LP,f,1199,HP,win
10,27,male,Polish,exp,3,46,exp,yes,616,mixed,f,433,win,0,1133,0.8,10,0.2,20,LP-HP,j,878,HP,win
10,27,male,Polish,exp,3,48,exp,yes,887,mixed,f,1015,win,0,666,0.6,20,0.4,50,LP-HP,f,1311,LP,no-win
10,27,male,Polish,exp,3,50,catch,no,543,mixed,j,867,loss,0,1186,0.6,40,0.2,10,HP-LP,f,982,HP,win
10,27,male,Polish,exp,4,2,catch,no,850,mixed,j,804,loss,0,1494,0.7,40,0.4,10,LP-HP,j,622,HP,win
10,27,male,Polish,exp,4,4,exp,yes,613,mixed,f,1096,win,0,867,0.7,10,0.3,30,HP-LP,f,1170,HP,no-win
10,27,male,Polish,exp,4,6,catch,no,573,mixed,f,903,win,0,635,0.8,50,0.3,30,HP-LP,f,1267,HP,win
10,27,male,Polish,exp,4,8,exp,no,677,mixed,j,297,win,0,541,0.8,20,0.2,30,HP-LP,f,1141,HP,no-win
10,27,male,Polish,exp,4,10,exp,no,544,mixed,j,382,loss,0,836,0.6,20,0.4,50,HP-LP,j,1398,LP,no-win
10,27,male,Polish,exp,4,12,exp,no,418,mixed,j,364,win,0,769,0.6,30,0.4,50,HP-LP,j,1306,LP,no-win
10,27,male,Polish,exp,4,14,catch,no,456,mixed,f,394,loss,0,630,0.6,40,0.2,10,LP-HP,j,622,HP,no-win
10,27,male,Polish,exp,4,16,exp,no,463,mixed,f,267,loss,0,517,0.7,30,0.3,40,LP-HP,j,946,HP,no-win
10,27,male,Polish,exp,4,18,exp,yes,489,mixed,f,188,loss,0,594,0.7,20,0.3,30,HP-LP,f,878,HP,win
10,27,male,Polish,exp,4,20,exp,no,594,mixed,f,1101,win,0,599,0.6,40,0.4,50,HP-LP,f,1341,HP,win
10,27,male,Polish,exp,4,22,exp,yes,1544,mixed,j,381,win,0,421,0.7,30,0.3,40,LP-HP,j,667,HP,no-win
10,27,male,Polish,exp,4,24,exp,yes,590,mixed,j,280,loss,0,470,0.6,10,0.4,40,LP-HP,f,1050,LP,win
10,27,male,Polish,exp,4,26,exp,yes,592,mixed,j,301,win,0,521,0.6,20,0.4,50,HP-LP,j,861,LP,win
10,27,male,Polish,exp,4,28,exp,no,681,mixed,f,309,win,0,1394,0.7,30,0.3,40,HP-LP,f,947,HP,win
10,27,male,Polish,exp,4,30,exp,yes,483,mixed,j,798,win,0,555,0.7,10,0.3,50,LP-HP,j,1176,HP,no-win
10,27,male,Polish,exp,4,32,exp,no,388,mixed,f,330,loss,0,1459,0.6,40,0.4,50,HP-LP,j,1249,LP,no-win
10,27,male,Polish,exp,4,34,exp,yes,580,mixed,j,480,win,0,567,0.7,30,0.3,40,HP-LP,f,816,HP,win
10,27,male,Polish,exp,4,36,exp,yes,416,mixed,f,832,win,0,343,0.6,40,0.4,50,LP-HP,j,1946,HP,win
10,27,male,Polish,exp,4,38,exp,no,861,mixed,j,639,loss,0,2869,0.8,20,0.2,30,LP-HP,j,616,HP,win
10,27,male,Polish,exp,4,40,exp,yes,516,mixed,j,536,loss,0,443,0.6,30,0.4,50,LP-HP,f,993,LP,no-win
10,27,male,Polish,exp,4,42,catch,no,446,mixed,j,200,win,0,424,0.7,40,0.4,10,HP-LP,f,702,HP,win
10,27,male,Polish,exp,4,44,exp,no,433,mixed,f,336,loss,0,607,0.6,30,0.4,50,LP-HP,j,1808,HP,win
10,27,male,Polish,exp,4,46,exp,no,367,mixed,f,326,win,0,502,0.6,40,0.4,50,LP-HP,j,1632,HP,win
10,27,male,Polish,exp,4,48,catch,no,442,mixed,j,359,loss,0,492,0.7,30,0.4,20,LP-HP,j,1123,HP,win
10,27,male,Polish,exp,4,50,exp,no,246,mixed,j,268,loss,0,1640,0.7,10,0.3,50,HP-LP,j,1319,LP,no-win
10,27,male,Polish,exp,5,2,exp,yes,1739,mixed,f,788,loss,0,691,0.7,30,0.3,40,HP-LP,f,1072,HP,win
10,27,male,Polish,exp,5,4,exp,no,371,mixed,f,286,win,0,659,0.6,10,0.4,40,LP-HP,f,1084,LP,no-win
10,27,male,Polish,exp,5,6,catch,no,256,mixed,f,286,loss,0,479,0.8,50,0.3,30,HP-LP,f,797,HP,win
10,27,male,Polish,exp,5,8,exp,no,328,mixed,j,251,loss,0,727,0.8,20,0.2,30,HP-LP,f,1403,HP,win
10,27,male,Polish,exp,5,10,exp,no,325,mixed,j,285,loss,0,406,0.6,20,0.4,50,LP-HP,f,1296,LP,win
10,27,male,Polish,exp,5,12,exp,no,329,mixed,j,257,win,0,410,0.7,10,0.3,30,LP-HP,j,799,HP,win
10,27,male,Polish,exp,5,14,exp,yes,312,mixed,f,256,loss,0,344,0.6,40,0.4,50,HP-LP,f,1027,HP,win
10,27,male,Polish,exp,5,16,exp,yes,556,mixed,j,684,loss,0,426,0.7,10,0.3,50,HP-LP,j,1324,LP,win
10,27,male,Polish,exp,5,18,exp,no,721,mixed,j,244,loss,0,1549,0.6,10,0.4,40,HP-LP,j,1278,LP,win
10,27,male,Polish,exp,5,20,exp,no,762,mixed,j,313,loss,0,1043,0.6,30,0.4,50,HP-LP,f,1661,HP,win
10,27,male,Polish,exp,5,22,exp,no,378,mixed,j,215,win,0,527,0.8,20,0.2,30,LP-HP,j,885,HP,win
10,27,male,Polish,exp,5,24,exp,yes,319,mixed,f,251,loss,0,325,0.6,20,0.4,50,LP-HP,f,1033,LP,win
10,27,male,Polish,exp,5,26,catch,no,286,mixed,j,239,loss,0,524,0.8,50,0.2,20,HP-LP,f,650,HP,win
10,27,male,Polish,exp,5,28,exp,yes,304,mixed,j,217,win,1,480,0.7,10,0.3,30,LP-HP,j,729,HP,win
10,27,male,Polish,exp,5,30,exp,no,339,mixed,f,262,win,0,484,0.7,20,0.3,30,LP-HP,j,981,HP,win
10,27,male,Polish,exp,5,32,exp,yes,306,mixed,f,269,win,0,465,0.6,10,0.4,40,HP-LP,j,884,LP,no-win
10,27,male,Polish,exp,5,34,exp,yes,1207,mixed,j,274,loss,0,439,0.7,10,0.3,30,HP-LP,f,1391,HP,win
10,27,male,Polish,exp,5,36,exp,no,326,mixed,j,234,loss,0,527,0.7,20,0.3,30,LP-HP,j,1147,HP,win
10,27,male,Polish,exp,5,38,catch,no,442,mixed,j,292,win,0,588,0.8,50,0.3,30,LP-HP,j,558,HP,win
10,27,male,Polish,exp,5,40,exp,yes,257,mixed,f,240,loss,0,396,0.7,10,0.3,50,LP-HP,j,1117,HP,no-win
10,27,male,Polish,exp,5,42,exp,yes,429,mixed,f,240,loss,0,392,0.8,20,0.2,30,HP-LP,f,810,HP,win
10,27,male,Polish,exp,5,44,catch,no,372,mixed,f,257,win,0,413,0.7,30,0.4,20,LP-HP,j,570,HP,win
10,27,male,Polish,exp,5,46,exp,yes,257,mixed,f,256,loss,0,469,0.7,20,0.3,30,LP-HP,j,513,HP,win
10,27,male,Polish,exp,5,48,exp,no,425,mixed,f,650,loss,0,512,0.7,10,0.3,50,LP-HP,f,811,LP,no-win
10,27,male,Polish,exp,5,50,catch,no,325,mixed,f,285,win,0,293,0.6,40,0.2,10,HP-LP,f,660,HP,win
10,27,male,Polish,exp,6,2,exp,no,633,mixed,j,816,win,0,504,0.7,10,0.3,50,LP-HP,j,1037,HP,win
10,27,male,Polish,exp,6,4,exp,yes,463,mixed,j,577,loss,1,516,0.8,10,0.2,20,LP-HP,j,627,HP,no-win
10,27,male,Polish,exp,6,6,catch,no,315,mixed,j,291,loss,0,379,0.8,50,0.2,20,LP-HP,j,571,HP,no-win
10,27,male,Polish,exp,6,8,catch,no,270,mixed,f,336,loss,0,493,0.8,50,0.3,30,LP-HP,j,638,HP,no-win
10,27,male,Polish,exp,6,10,catch,no,272,mixed,j,251,loss,0,308,0.7,40,0.4,10,HP-LP,f,617,HP,win
10,27,male,Polish,exp,6,12,exp,yes,371,mixed,j,240,loss,1,311,0.6,40,0.4,50,LP-HP,j,1061,HP,win
10,27,male,Polish,exp,6,14,exp,no,312,mixed,j,291,win,0,396,0.7,30,0.3,40,LP-HP,j,1015,HP,no-win
10,27,male,Polish,exp,6,16,exp,yes,825,mixed,j,376,loss,1,763,0.8,20,0.2,30,LP-HP,j,786,HP,no-win
10,27,male,Polish,exp,6,18,exp,no,477,mixed,f,398,loss,0,792,0.7,10,0.3,30,LP-HP,j,924,HP,win
10,27,male,Polish,exp,6,20,exp,yes,280,mixed,f,240,loss,1,795,0.6,10,0.4,40,HP-LP,j,1672,LP,win
10,27,male,Polish,exp,6,22,exp,no,260,mixed,f,297,win,0,416,0.6,20,0.4,50,LP-HP,f,918,LP,no-win
10,27,male,Polish,exp,6,24,catch,no,64,mixed,f,342,win,0,343,0.7,40,0.4,10,LP-HP,j,690,HP,win
10,27,male,Polish,exp,6,26,exp,yes,253,mixed,j,303,win,1,425,0.8,20,0.2,30,HP-LP,f,815,HP,win
10,27,male,Polish,exp,6,28,catch,no,418,mixed,j,274,win,0,472,0.6,40,0.2,10,LP-HP,j,599,HP,no-win
10,27,male,Polish,exp,6,30,exp,yes,280,mixed,j,210,loss,0,402,0.6,30,0.4,50,HP-LP,j,1056,LP,win
10,27,male,Polish,exp,6,32,exp,no,349,mixed,f,274,loss,0,499,0.7,30,0.3,40,HP-LP,f,837,HP,win
10,27,male,Polish,exp,6,34,exp,no,348,mixed,f,348,loss,0,452,0.6,10,0.4,40,LP-HP,f,1210,LP,no-win
10,27,male,Polish,exp,6,36,exp,no,299,mixed,f,205,win,0,826,0.8,10,0.2,20,LP-HP,j,514,HP,win
10,27,male,Polish,exp,6,38,exp,yes,251,mixed,j,195,win,1,265,0.6,30,0.4,50,LP-HP,j,1403,HP,win
10,27,male,Polish,exp,6,40,exp,no,268,mixed,j,239,loss,0,544,0.6,40,0.4,50,LP-HP,j,1175,HP,win
10,27,male,Polish,exp,6,42,exp,yes,279,mixed,j,222,win,0,481,0.7,20,0.3,30,LP-HP,j,883,HP,win
10,27,male,Polish,exp,6,44,exp,no,269,mixed,j,290,win,0,497,0.8,10,0.2,20,HP-LP,f,598,HP,win
10,27,male,Polish,exp,6,46,exp,no,306,mixed,f,216,loss,0,363,0.8,10,0.2,20,LP-HP,j,725,HP,win
10,27,male,Polish,exp,6,48,exp,no,357,mixed,j,239,loss,0,349,0.7,10,0.3,30,HP-LP,f,1386,HP,win
10,27,male,Polish,exp,6,50,exp,yes,286,mixed,j,342,win,0,1113,0.6,10,0.4,40,LP-HP,f,1203,LP,win
