subject_ID,age,gender,nationality,exp_part,block_number,trial_number,trial_type,delay,game1_startRT,game1_color,game1_respKey,game1_respRT,game1_outcome,game2_delay_premature,game2_startRT,game2_HP_prob,game2_HP_amount,game2_LP_prob,game2_LP_amount,game2_pos,game2_respKey,game2_respRT,game2_choice,game2_outcome,HP_EV,LP_EV,high_EV_option,choose_high_EV,EV_ratio,game1_outcome_num,delay_num,game2_choose_HP
1,27,male,Portugal,exp,3,2,exp,no,1860,mixed,f,1611,win,0,776,0.6,40,0.4,50,LP-HP,j,4748,HP,win,24,20,HP,yes,0.18181818181818185,-0.5,-0.5,1
1,27,male,Portugal,exp,3,4,exp,no,710,mixed,f,1258,win,0,1176,0.6,30,0.4,50,LP-HP,j,3667,HP,win,18,20,LP,no,-0.10526315789473684,-0.5,-0.5,1
1,27,male,Portugal,exp,3,6,exp,yes,732,mixed,f,2271,win,0,886,0.7,20,0.3,30,HP-LP,f,3139,HP,win,14,9,HP,yes,0.43478260869565216,-0.5,0.5,1
1,27,male,Portugal,exp,3,12,exp,yes,644,mixed,j,1839,loss,0,611,0.8,20,0.2,30,LP-HP,j,2070,HP,win,16,6,HP,yes,0.9090909090909092,0.5,0.5,1
1,27,male,Portugal,exp,3,16,exp,no,451,mixed,f,749,loss,0,413,0.6,20,0.4,50,LP-HP,f,2563,LP,no-win,12,20,LP,yes,-0.5,0.5,-0.5,0
1,27,male,Portugal,exp,3,18,exp,no,403,mixed,f,722,loss,0,416,0.6,20,0.4,50,HP-LP,f,2364,HP,win,12,20,LP,no,-0.5,0.5,-0.5,1
1,27,male,Portugal,exp,3,20,exp,no,526,mixed,f,648,loss,0,297,0.7,10,0.3,30,HP-LP,f,3610,HP,no-win,7,9,LP,no,-0.25,0.5,-0.5,1
1,27,male,Portugal,exp,3,24,exp,no,420,mixed,j,1018,loss,1,631,0.7,10,0.3,50,HP-LP,j,3748,LP,no-win,7,15,LP,yes,-0.7272727272727273,0.5,-0.5,0
1,27,male,Portugal,exp,3,26,exp,no,763,mixed,f,800,loss,0,409,0.7,20,0.3,30,LP-HP,j,1617,HP,win,14,9,HP,yes,0.43478260869565216,0.5,-0.5,1
1,27,male,Portugal,exp,3,28,exp,yes,667,mixed,f,836,loss,1,359,0.6,30,0.4,50,HP-LP,f,1528,HP,win,18,20,LP,no,-0.10526315789473684,0.5,0.5,1
1,27,male,Portugal,exp,3,30,exp,yes,782,mixed,j,955,loss,0,728,0.6,40,0.4,50,LP-HP,j,1559,HP,no-win,24,20,HP,yes,0.18181818181818185,0.5,0.5,1
1,27,male,Portugal,exp,3,32,exp,no,704,mixed,j,921,win,0,592,0.7,20,0.3,30,LP-HP,j,1645,HP,win,14,9,HP,yes,0.43478260869565216,-0.5,-0.5,1
1,27,male,Portugal,exp,3,34,exp,yes,597,mixed,j,1357,loss,0,747,0.6,40,0.4,50,HP-LP,f,2371,HP,win,24,20,HP,yes,0.18181818181818185,0.5,0.5,1
1,27,male,Portugal,exp,3,36,exp,no,619,mixed,j,1200,win,0,1532,0.7,30,0.3,40,HP-LP,f,1606,HP,win,21,12,HP,yes,0.5454545454545454,-0.5,-0.5,1
1,27,male,Portugal,exp,3,38,exp,no,476,mixed,j,529,loss,0,684,0.6,10,0.4,40,HP-LP,j,1557,LP,win,6,16,LP,yes,-0.9090909090909092,0.5,-0.5,0
1,27,male,Portugal,exp,3,40,exp,yes,1550,mixed,j,1116,win,0,649,0.7,30,0.3,40,LP-HP,j,1468,HP,win,21,12,HP,yes,0.5454545454545454,-0.5,0.5,1
1,27,male,Portugal,exp,3,42,exp,yes,784,mixed,j,960,loss,0,795,0.6,20,0.4,50,LP-HP,f,3234,LP,no-win,12,20,LP,yes,-0.5,0.5,0.5,0
1,27,male,Portugal,exp,3,44,exp,no,527,mixed,f,738,win,0,2914,0.6,20,0.4,50,HP-LP,j,1746,LP,no-win,12,20,LP,yes,-0.5,-0.5,-0.5,0
1,27,male,Portugal,exp,3,46,exp,yes,436,mixed,j,610,loss,0,574,0.6,20,0.4,50,HP-LP,f,2687,HP,win,12,20,LP,no,-0.5,0.5,0.5,1
1,27,male,Portugal,exp,3,48,exp,no,402,mixed,f,761,win,0,411,0.8,20,0.2,30,LP-HP,j,1504,HP,win,16,6,HP,yes,0.9090909090909092,-0.5,-0.5,1
1,27,male,Portugal,exp,4,2,exp,yes,1577,mixed,f,917,loss,0,902,0.8,20,0.2,30,HP-LP,f,1872,HP,win,16,6,HP,yes,0.9090909090909092,0.5,0.5,1
1,27,male,Portugal,exp,4,4,exp,no,645,mixed,j,774,win,0,1438,0.7,10,0.3,30,HP-LP,f,1960,HP,no-win,7,9,LP,no,-0.25,-0.5,-0.5,1
1,27,male,Portugal,exp,4,6,exp,no,568,mixed,f,903,win,0,414,0.6,20,0.4,50,LP-HP,j,1627,HP,no-win,12,20,LP,no,-0.5,-0.5,-0.5,1
1,27,male,Portugal,exp,4,8,exp,yes,549,mixed,f,1172,win,0,1092,0.6,30,0.4,50,LP-HP,j,1547,HP,win,18,20,LP,no,-0.10526315789473684,-0.5,0.5,1
1,27,male,Portugal,exp,4,10,exp,no,807,mixed,f,772,loss,0,574,0.7,30,0.3,40,LP-HP,j,1296,HP,no-win,21,12,HP,yes,0.5454545454545454,0.5,-0.5,1
1,27,male,Portugal,exp,4,12,exp,yes,569,mixed,j,1709,win,0,492,0.8,10,0.2,20,LP-HP,j,1342,HP,win,8,4,HP,yes,0.6666666666666666,-0.5,0.5,1
1,27,male,Portugal,exp,4,14,exp,no,632,mixed,j,929,loss,0,747,0.8,20,0.2,30,HP-LP,f,1300,HP,win,16,6,HP,yes,0.9090909090909092,0.5,-0.5,1
1,27,male,Portugal,exp,4,16,exp,no,613,mixed,f,763,loss,0,493,0.7,30,0.3,40,HP-LP,f,1473,HP,no-win,21,12,HP,yes,0.5454545454545454,0.5,-0.5,1
1,27,male,Portugal,exp,4,18,exp,yes,353,mixed,j,1022,loss,0,592,0.7,30,0.3,40,LP-HP,j,1998,HP,win,21,12,HP,yes,0.5454545454545454,0.5,0.5,1
1,27,male,Portugal,exp,4,22,exp,yes,435,mixed,f,1191,win,0,686,0.8,10,0.2,20,HP-LP,f,2291,HP,win,8,4,HP,yes,0.6666666666666666,-0.5,0.5,1
1,27,male,Portugal,exp,4,28,exp,no,4289,mixed,f,1240,win,0,2008,0.6,30,0.4,50,HP-LP,f,1613,HP,win,18,20,LP,no,-0.10526315789473684,-0.5,-0.5,1
1,27,male,Portugal,exp,4,30,exp,yes,1657,mixed,j,892,win,0,633,0.6,20,0.4,50,HP-LP,f,1886,HP,no-win,12,20,LP,no,-0.5,-0.5,0.5,1
1,27,male,Portugal,exp,4,32,exp,yes,477,mixed,j,1224,loss,0,1379,0.8,10,0.2,20,HP-LP,f,1437,HP,win,8,4,HP,yes,0.6666666666666666,0.5,0.5,1
1,27,male,Portugal,exp,4,36,exp,yes,533,mixed,j,850,loss,0,860,0.6,10,0.4,40,LP-HP,f,3322,LP,no-win,6,16,LP,yes,-0.9090909090909092,0.5,0.5,0
1,27,male,Portugal,exp,4,38,exp,yes,509,mixed,j,760,loss,0,482,0.7,10,0.3,30,LP-HP,j,1840,HP,no-win,7,9,LP,no,-0.25,0.5,0.5,1
1,27,male,Portugal,exp,4,40,exp,no,597,mixed,f,698,win,0,574,0.7,10,0.3,50,LP-HP,j,1828,HP,win,7,15,LP,no,-0.7272727272727273,-0.5,-0.5,1
1,27,male,Portugal,exp,4,42,exp,yes,466,mixed,j,857,win,0,522,0.7,10,0.3,50,LP-HP,j,1270,HP,win,7,15,LP,no,-0.7272727272727273,-0.5,0.5,1
1,27,male,Portugal,exp,4,48,exp,no,596,mixed,f,1151,win,0,472,0.8,10,0.2,20,LP-HP,j,1118,HP,no-win,8,4,HP,yes,0.6666666666666666,-0.5,-0.5,1
1,27,male,Portugal,exp,4,50,exp,no,655,mixed,f,754,loss,0,545,0.6,10,0.4,40,LP-HP,f,2725,LP,win,6,16,LP,yes,-0.9090909090909092,0.5,-0.5,0
1,27,male,Portugal,exp,4,52,exp,yes,604,mixed,j,650,loss,0,573,0.7,20,0.3,30,LP-HP,j,1399,HP,win,14,9,HP,yes,0.43478260869565216,0.5,0.5,1
1,27,male,Portugal,exp,5,2,exp,no,2925,mixed,f,704,loss,0,542,0.8,20,0.2,30,LP-HP,j,1037,HP,win,16,6,HP,yes,0.9090909090909092,0.5,-0.5,1
1,27,male,Portugal,exp,5,4,exp,no,449,mixed,j,834,loss,0,520,0.7,10,0.3,30,LP-HP,j,927,HP,win,7,9,LP,no,-0.25,0.5,-0.5,1
1,27,male,Portugal,exp,5,6,exp,yes,404,mixed,f,560,win,0,546,0.7,10,0.3,50,HP-LP,f,1001,HP,no-win,7,15,LP,no,-0.7272727272727273,-0.5,0.5,1
1,27,male,Portugal,exp,5,8,exp,no,563,mixed,j,991,loss,0,1045,0.8,10,0.2,20,HP-LP,f,2372,HP,win,8,4,HP,yes,0.6666666666666666,0.5,-0.5,1
1,27,male,Portugal,exp,5,12,exp,yes,408,mixed,f,684,loss,0,464,0.6,30,0.4,50,LP-HP,j,1350,HP,no-win,18,20,LP,no,-0.10526315789473684,0.5,0.5,1
1,27,male,Portugal,exp,5,14,exp,no,460,mixed,f,702,loss,0,441,0.6,40,0.4,50,HP-LP,f,1265,HP,no-win,24,20,HP,yes,0.18181818181818185,0.5,-0.5,1
1,27,male,Portugal,exp,5,18,exp,yes,495,mixed,f,828,win,0,366,0.6,10,0.4,40,LP-HP,f,1146,LP,win,6,16,LP,yes,-0.9090909090909092,-0.5,0.5,0
1,27,male,Portugal,exp,5,22,exp,yes,749,mixed,j,1024,win,0,638,0.8,20,0.2,30,HP-LP,f,1223,HP,win,16,6,HP,yes,0.9090909090909092,-0.5,0.5,1
1,27,male,Portugal,exp,5,26,exp,no,2073,mixed,f,1326,win,0,404,0.6,40,0.4,50,HP-LP,f,1451,HP,win,24,20,HP,yes,0.18181818181818185,-0.5,-0.5,1
1,27,male,Portugal,exp,5,28,exp,no,392,mixed,j,1724,loss,0,835,0.6,30,0.4,50,HP-LP,f,1194,HP,win,18,20,LP,no,-0.10526315789473684,0.5,-0.5,1
1,27,male,Portugal,exp,5,30,exp,yes,1618,mixed,j,578,win,0,647,0.6,40,0.4,50,HP-LP,f,1198,HP,win,24,20,HP,yes,0.18181818181818185,-0.5,0.5,1
1,27,male,Portugal,exp,5,32,exp,yes,3007,mixed,j,778,loss,1,622,0.7,10,0.3,30,HP-LP,j,3468,LP,no-win,7,9,LP,yes,-0.25,0.5,0.5,0
1,27,male,Portugal,exp,5,34,exp,no,1345,mixed,j,1413,loss,0,1462,0.7,20,0.3,30,HP-LP,f,1241,HP,win,14,9,HP,yes,0.43478260869565216,0.5,-0.5,1
1,27,male,Portugal,exp,5,36,exp,no,6270,mixed,f,1478,win,0,1146,0.7,10,0.3,30,LP-HP,j,1568,HP,win,7,9,LP,no,-0.25,-0.5,-0.5,1
1,27,male,Portugal,exp,5,40,exp,no,325,mixed,j,706,win,0,360,0.7,10,0.3,50,HP-LP,f,1263,HP,no-win,7,15,LP,no,-0.7272727272727273,-0.5,-0.5,1
1,27,male,Portugal,exp,5,42,exp,no,657,mixed,f,700,win,0,1011,0.7,20,0.3,30,HP-LP,f,1138,HP,win,14,9,HP,yes,0.43478260869565216,-0.5,-0.5,1
1,27,male,Portugal,exp,5,44,exp,no,744,mixed,f,531,win,0,379,0.6,10,0.4,40,HP-LP,f,867,HP,win,6,16,LP,no,-0.9090909090909092,-0.5,-0.5,1
1,27,male,Portugal,exp,5,46,exp,yes,1154,mixed,f,399,win,0,565,0.6,30,0.4,50,HP-LP,f,993,HP,no-win,18,20,LP,no,-0.10526315789473684,-0.5,0.5,1
1,27,male,Portugal,exp,5,50,exp,no,587,mixed,j,382,win,0,426,0.8,20,0.2,30,HP-LP,f,941,HP,no-win,16,6,HP,yes,0.9090909090909092,-0.5,-0.5,1
1,27,male,Portugal,exp,5,52,exp,yes,350,mixed,f,298,loss,0,473,0.7,10,0.3,50,HP-LP,f,881,HP,win,7,15,LP,no,-0.7272727272727273,0.5,0.5,1
1,27,male,Portugal,exp,6,2,exp,no,788,mixed,f,2120,loss,0,409,0.6,30,0.4,50,LP-HP,j,1083,HP,no-win,18,20,LP,no,-0.10526315789473684,0.5,-0.5,1
1,27,male,Portugal,exp,6,4,exp,yes,549,mixed,f,551,win,0,385,0.8,20,0.2,30,LP-HP,j,768,HP,no-win,16,6,HP,yes,0.9090909090909092,-0.5,0.5,1
1,27,male,Portugal,exp,6,6,exp,no,566,mixed,f,370,loss,0,497,0.6,40,0.4,50,LP-HP,j,1837,HP,win,24,20,HP,yes,0.18181818181818185,0.5,-0.5,1
1,27,male,Portugal,exp,6,8,exp,yes,481,mixed,j,233,loss,1,482,0.7,20,0.3,30,HP-LP,f,1167,HP,no-win,14,9,HP,yes,0.43478260869565216,0.5,0.5,1
1,27,male,Portugal,exp,6,12,exp,yes,927,mixed,j,789,win,0,781,0.7,10,0.3,30,HP-LP,f,1035,HP,win,7,9,LP,no,-0.25,-0.5,0.5,1
1,27,male,Portugal,exp,6,14,exp,yes,529,mixed,j,682,loss,0,563,0.7,10,0.3,50,LP-HP,f,2559,LP,no-win,7,15,LP,yes,-0.7272727272727273,0.5,0.5,0
1,27,male,Portugal,exp,6,16,exp,no,1540,mixed,f,758,win,0,381,0.6,10,0.4,40,LP-HP,f,1637,LP,win,6,16,LP,yes,-0.9090909090909092,-0.5,-0.5,0
1,27,male,Portugal,exp,6,20,exp,no,601,mixed,f,513,loss,0,208160,0.8,10,0.2,20,LP-HP,j,1153,HP,no-win,8,4,HP,yes,0.6666666666666666,0.5,-0.5,1
1,27,male,Portugal,exp,6,22,exp,no,501,mixed,f,555,loss,0,425,0.7,10,0.3,50,LP-HP,j,947,HP,no-win,7,15,LP,no,-0.7272727272727273,0.5,-0.5,1
1,27,male,Portugal,exp,6,24,exp,yes,388,mixed,f,503,win,0,607,0.6,20,0.4,50,LP-HP,f,3348,LP,no-win,12,20,LP,yes,-0.5,-0.5,0.5,0
1,27,male,Portugal,exp,6,28,exp,yes,417,mixed,f,555,loss,0,535,0.8,10,0.2,20,LP-HP,j,935,HP,win,8,4,HP,yes,0.6666666666666666,0.5,0.5,1
1,27,male,Portugal,exp,6,30,exp,yes,460,mixed,f,636,loss,0,470,0.6,10,0.4,40,HP-LP,f,958,HP,win,6,16,LP,no,-0.9090909090909092,0.5,0.5,1
1,27,male,Portugal,exp,6,32,exp,yes,419,mixed,j,441,win,0,772,0.7,30,0.3,40,HP-LP,f,595,HP,win,21,12,HP,yes,0.5454545454545454,-0.5,0.5,1
1,27,male,Portugal,exp,6,34,exp,yes,438,mixed,f,468,win,0,364,0.7,10,0.3,30,LP-HP,j,1022,HP,no-win,7,9,LP,no,-0.25,-0.5,0.5,1
1,27,male,Portugal,exp,6,36,exp,yes,398,mixed,j,656,win,0,436,0.6,40,0.4,50,LP-HP,j,1655,HP,no-win,24,20,HP,yes,0.18181818181818185,-0.5,0.5,1
1,27,male,Portugal,exp,6,38,exp,yes,490,mixed,j,482,win,0,464,0.7,20,0.3,30,LP-HP,j,771,HP,win,14,9,HP,yes,0.43478260869565216,-0.5,0.5,1
1,27,male,Portugal,exp,6,40,exp,no,429,mixed,j,519,win,0,301,0.8,10,0.2,20,HP-LP,f,533,HP,no-win,8,4,HP,yes,0.6666666666666666,-0.5,-0.5,1
1,27,male,Portugal,exp,6,42,exp,yes,523,mixed,j,348,win,0,496,0.6,10,0.4,40,HP-LP,j,2499,LP,no-win,6,16,LP,yes,-0.9090909090909092,-0.5,0.5,0
1,27,male,Portugal,exp,6,44,exp,yes,369,mixed,j,742,loss,1,818,0.7,30,0.3,40,HP-LP,f,806,HP,win,21,12,HP,yes,0.5454545454545454,0.5,0.5,1
1,27,male,Portugal,exp,6,50,exp,no,438,mixed,j,679,win,0,318,0.7,30,0.3,40,LP-HP,j,1174,HP,win,21,12,HP,yes,0.5454545454545454,-0.5,-0.5,1
10,28,male,Scottish,exp,3,6,exp,yes,392,mixed,j,496,loss,0,530,0.6,20,0.4,50,HP-LP,j,712,LP,no-win,12,20,LP,yes,-0.5,0.5,0.5,0
10,28,male,Scottish,exp,3,8,exp,no,1657,mixed,f,536,loss,0,458,0.7,10,0.3,30,LP-HP,j,1048,HP,win,7,9,LP,no,-0.25,0.5,-0.5,1
10,28,male,Scottish,exp,3,12,exp,yes,400,mixed,j,511,win,0,458,0.7,30,0.3,40,HP-LP,f,888,HP,win,21,12,HP,yes,0.5454545454545454,-0.5,0.5,1
10,28,male,Scottish,exp,3,14,exp,no,496,mixed,f,528,loss,0,458,0.6,30,0.4,50,HP-LP,j,680,LP,win,18,20,LP,yes,-0.10526315789473684,0.5,-0.5,0
10,28,male,Scottish,exp,3,16,exp,yes,408,mixed,j,431,win,0,489,0.8,10,0.2,20,HP-LP,f,711,HP,win,8,4,HP,yes,0.6666666666666666,-0.5,0.5,1
10,28,male,Scottish,exp,3,20,exp,no,352,mixed,j,439,win,0,722,0.8,10,0.2,20,LP-HP,j,552,HP,win,8,4,HP,yes,0.6666666666666666,-0.5,-0.5,1
10,28,male,Scottish,exp,3,22,exp,yes,488,mixed,f,503,win,0,402,0.7,20,0.3,30,HP-LP,f,728,HP,win,14,9,HP,yes,0.43478260869565216,-0.5,0.5,1
10,28,male,Scottish,exp,3,24,exp,yes,1184,mixed,j,511,win,0,569,0.7,10,0.3,50,HP-LP,f,687,HP,no-win,7,15,LP,no,-0.7272727272727273,-0.5,0.5,1
10,28,male,Scottish,exp,3,26,exp,yes,415,mixed,j,544,loss,1,481,0.6,40,0.4,50,LP-HP,j,1095,HP,win,24,20,HP,yes,0.18181818181818185,0.5,0.5,1
10,28,male,Scottish,exp,3,28,exp,no,1193,mixed,f,455,loss,0,362,0.6,10,0.4,40,LP-HP,f,839,LP,win,6,16,LP,yes,-0.9090909090909092,0.5,-0.5,0
10,28,male,Scottish,exp,3,32,exp,no,319,mixed,f,439,win,0,306,0.7,10,0.3,50,HP-LP,f,575,HP,no-win,7,15,LP,no,-0.7272727272727273,-0.5,-0.5,1
10,28,male,Scottish,exp,3,34,exp,no,263,mixed,j,175,win,0,537,0.7,10,0.3,30,HP-LP,f,783,HP,win,7,9,LP,no,-0.25,-0.5,-0.5,1
10,28,male,Scottish,exp,3,36,exp,no,311,mixed,j,479,loss,1,409,0.6,20,0.4,50,HP-LP,j,736,LP,win,12,20,LP,yes,-0.5,0.5,-0.5,0
10,28,male,Scottish,exp,3,40,exp,yes,551,mixed,f,4439,win,0,392,0.6,20,0.4,50,LP-HP,f,1039,LP,no-win,12,20,LP,yes,-0.5,-0.5,0.5,0
10,28,male,Scottish,exp,3,42,exp,no,999,mixed,j,1543,loss,0,857,0.7,30,0.3,40,HP-LP,f,832,HP,win,21,12,HP,yes,0.5454545454545454,0.5,-0.5,1
10,28,male,Scottish,exp,3,44,exp,yes,759,mixed,j,464,win,0,713,0.6,10,0.4,40,LP-HP,f,967,LP,no-win,6,16,LP,yes,-0.9090909090909092,-0.5,0.5,0
10,28,male,Scottish,exp,3,46,exp,yes,1183,mixed,j,879,win,0,1752,0.6,40,0.4,50,LP-HP,f,1144,LP,no-win,24,20,HP,no,0.18181818181818185,-0.5,0.5,0
10,28,male,Scottish,exp,3,48,exp,yes,760,mixed,j,439,loss,0,519,0.7,10,0.3,30,HP-LP,f,439,HP,no-win,7,9,LP,no,-0.25,0.5,0.5,1
10,28,male,Scottish,exp,3,50,exp,yes,485,mixed,j,239,loss,0,376,0.7,30,0.3,40,HP-LP,f,279,HP,win,21,12,HP,yes,0.5454545454545454,0.5,0.5,1
10,28,male,Scottish,exp,3,52,exp,no,2495,mixed,j,799,loss,0,608,0.7,30,0.3,40,LP-HP,j,664,HP,win,21,12,HP,yes,0.5454545454545454,0.5,-0.5,1
10,28,male,Scottish,exp,4,2,exp,no,799,mixed,f,503,win,0,529,0.6,20,0.4,50,HP-LP,f,831,HP,no-win,12,20,LP,no,-0.5,-0.5,-0.5,1
10,28,male,Scottish,exp,4,4,exp,yes,479,mixed,j,311,loss,0,936,0.6,20,0.4,50,LP-HP,f,424,LP,win,12,20,LP,yes,-0.5,0.5,0.5,0
10,28,male,Scottish,exp,4,6,exp,no,1918,mixed,f,631,win,0,496,0.6,30,0.4,50,LP-HP,f,687,LP,no-win,18,20,LP,yes,-0.10526315789473684,-0.5,-0.5,0
10,28,male,Scottish,exp,4,8,exp,no,1239,mixed,j,439,loss,0,488,0.6,40,0.4,50,LP-HP,j,560,HP,win,24,20,HP,yes,0.18181818181818185,0.5,-0.5,1
10,28,male,Scottish,exp,4,14,exp,yes,460,mixed,j,608,loss,0,376,0.6,30,0.4,50,HP-LP,j,855,LP,no-win,18,20,LP,yes,-0.10526315789473684,0.5,0.5,0
10,28,male,Scottish,exp,4,16,exp,no,558,mixed,f,424,loss,0,488,0.7,20,0.3,30,LP-HP,j,728,HP,win,14,9,HP,yes,0.43478260869565216,0.5,-0.5,1
10,28,male,Scottish,exp,4,18,exp,yes,350,mixed,j,648,loss,0,351,0.6,10,0.4,40,HP-LP,j,808,LP,win,6,16,LP,yes,-0.9090909090909092,0.5,0.5,0
10,28,male,Scottish,exp,4,20,exp,no,413,mixed,j,399,loss,0,535,0.7,10,0.3,50,LP-HP,j,664,HP,win,7,15,LP,no,-0.7272727272727273,0.5,-0.5,1
10,28,male,Scottish,exp,4,22,exp,yes,830,mixed,f,471,win,0,391,0.6,30,0.4,50,HP-LP,j,752,LP,no-win,18,20,LP,yes,-0.10526315789473684,-0.5,0.5,0
10,28,male,Scottish,exp,4,24,exp,no,494,mixed,j,903,win,0,2832,0.8,20,0.2,30,LP-HP,j,1511,HP,no-win,16,6,HP,yes,0.9090909090909092,-0.5,-0.5,1
10,28,male,Scottish,exp,4,26,exp,yes,22660,mixed,j,479,loss,0,359,0.7,10,0.3,30,LP-HP,j,983,HP,win,7,9,LP,no,-0.25,0.5,0.5,1
10,28,male,Scottish,exp,4,28,exp,no,446,mixed,j,527,win,0,263,0.6,40,0.4,50,LP-HP,j,975,HP,win,24,20,HP,yes,0.18181818181818185,-0.5,-0.5,1
10,28,male,Scottish,exp,4,30,exp,no,302,mixed,f,423,win,0,415,0.6,10,0.4,40,LP-HP,j,856,HP,win,6,16,LP,no,-0.9090909090909092,-0.5,-0.5,1
10,28,male,Scottish,exp,4,32,exp,yes,374,mixed,j,439,win,0,399,0.7,10,0.3,50,LP-HP,j,688,HP,win,7,15,LP,no,-0.7272727272727273,-0.5,0.5,1
10,28,male,Scottish,exp,4,34,exp,yes,475,mixed,j,488,loss,0,399,0.6,40,0.4,50,HP-LP,f,311,HP,win,24,20,HP,yes,0.18181818181818185,0.5,0.5,1
10,28,male,Scottish,exp,4,36,exp,yes,1365,mixed,j,432,loss,0,374,0.7,10,0.3,50,HP-LP,f,487,HP,no-win,7,15,LP,no,-0.7272727272727273,0.5,0.5,1
10,28,male,Scottish,exp,4,38,exp,no,988,mixed,j,416,loss,0,479,0.7,10,0.3,30,HP-LP,f,488,HP,win,7,9,LP,no,-0.25,0.5,-0.5,1
10,28,male,Scottish,exp,4,42,exp,yes,1301,mixed,j,456,loss,0,399,0.7,20,0.3,30,HP-LP,f,551,HP,win,14,9,HP,yes,0.43478260869565216,0.5,0.5,1
10,28,male,Scottish,exp,4,44,exp,no,653,mixed,f,472,win,0,583,0.6,30,0.4,50,HP-LP,j,896,LP,win,18,20,LP,yes,-0.10526315789473684,-0.5,-0.5,0
10,28,male,Scottish,exp,4,52,exp,no,541,mixed,j,527,loss,0,379,0.6,40,0.4,50,HP-LP,f,960,HP,win,24,20,HP,yes,0.18181818181818185,0.5,-0.5,1
10,28,male,Scottish,exp,5,4,exp,yes,316,mixed,f,167,win,0,453,0.7,10,0.3,30,LP-HP,j,536,HP,no-win,7,9,LP,no,-0.25,-0.5,0.5,1
10,28,male,Scottish,exp,5,8,exp,yes,428,mixed,f,359,win,1,325,0.6,40,0.4,50,HP-LP,f,823,HP,no-win,24,20,HP,yes,0.18181818181818185,-0.5,0.5,1
10,28,male,Scottish,exp,5,12,exp,yes,796,mixed,f,231,loss,0,685,0.7,30,0.3,40,LP-HP,j,480,HP,win,21,12,HP,yes,0.5454545454545454,0.5,0.5,1
10,28,male,Scottish,exp,5,14,exp,no,324,mixed,j,111,win,0,438,0.7,30,0.3,40,LP-HP,j,1215,HP,no-win,21,12,HP,yes,0.5454545454545454,-0.5,-0.5,1
10,28,male,Scottish,exp,5,16,exp,no,364,mixed,f,343,win,0,141,0.6,20,0.4,50,LP-HP,f,1368,LP,win,12,20,LP,yes,-0.5,-0.5,-0.5,0
10,28,male,Scottish,exp,5,18,exp,yes,356,mixed,j,247,win,0,965,0.6,20,0.4,50,HP-LP,j,1031,LP,win,12,20,LP,yes,-0.5,-0.5,0.5,0
10,28,male,Scottish,exp,5,20,exp,yes,314,mixed,f,119,win,1,445,0.6,30,0.4,50,LP-HP,f,840,LP,no-win,18,20,LP,yes,-0.10526315789473684,-0.5,0.5,0
10,28,male,Scottish,exp,5,22,exp,no,501,mixed,j,583,loss,0,878,0.6,30,0.4,50,LP-HP,f,687,LP,win,18,20,LP,yes,-0.10526315789473684,0.5,-0.5,0
10,28,male,Scottish,exp,5,24,exp,yes,716,mixed,j,487,loss,1,533,0.7,20,0.3,30,LP-HP,j,687,HP,win,14,9,HP,yes,0.43478260869565216,0.5,0.5,1
10,28,male,Scottish,exp,5,26,exp,no,844,mixed,f,480,win,0,2645,0.6,40,0.4,50,HP-LP,j,351,LP,no-win,24,20,HP,no,0.18181818181818185,-0.5,-0.5,0
10,28,male,Scottish,exp,5,30,exp,no,388,mixed,j,488,loss,0,173,0.7,10,0.3,50,HP-LP,f,519,HP,win,7,15,LP,no,-0.7272727272727273,0.5,-0.5,1
10,28,male,Scottish,exp,5,32,exp,no,340,mixed,j,400,loss,1,389,0.7,20,0.3,30,HP-LP,f,543,HP,no-win,14,9,HP,yes,0.43478260869565216,0.5,-0.5,1
10,28,male,Scottish,exp,5,34,exp,no,299,mixed,j,288,loss,1,541,0.8,20,0.2,30,HP-LP,f,175,HP,win,16,6,HP,yes,0.9090909090909092,0.5,-0.5,1
10,28,male,Scottish,exp,5,36,exp,yes,259,mixed,f,567,loss,1,420,0.8,20,0.2,30,HP-LP,f,536,HP,win,16,6,HP,yes,0.9090909090909092,0.5,0.5,1
10,28,male,Scottish,exp,5,42,exp,no,307,mixed,j,440,win,0,349,0.8,10,0.2,20,HP-LP,f,503,HP,win,8,4,HP,yes,0.6666666666666666,-0.5,-0.5,1
10,28,male,Scottish,exp,5,44,exp,no,435,mixed,f,552,win,0,301,0.8,20,0.2,30,HP-LP,f,576,HP,win,16,6,HP,yes,0.9090909090909092,-0.5,-0.5,1
10,28,male,Scottish,exp,5,46,exp,yes,459,mixed,j,480,loss,1,548,0.8,20,0.2,30,LP-HP,j,496,HP,win,16,6,HP,yes,0.9090909090909092,0.5,0.5,1
10,28,male,Scottish,exp,5,48,exp,yes,571,mixed,f,543,win,0,436,0.7,30,0.3,40,LP-HP,j,463,HP,win,21,12,HP,yes,0.5454545454545454,-0.5,0.5,1
10,28,male,Scottish,exp,5,50,exp,yes,491,mixed,j,504,win,1,428,0.7,20,0.3,30,LP-HP,j,440,HP,win,14,9,HP,yes,0.43478260869565216,-0.5,0.5,1
10,28,male,Scottish,exp,5,52,exp,yes,347,mixed,f,431,loss,0,436,0.6,10,0.4,40,LP-HP,f,1071,LP,win,6,16,LP,yes,-0.9090909090909092,0.5,0.5,0
10,28,male,Scottish,exp,6,2,exp,no,775,mixed,j,440,loss,0,1357,0.8,20,0.2,30,LP-HP,j,1168,HP,win,16,6,HP,yes,0.9090909090909092,0.5,-0.5,1
10,28,male,Scottish,exp,6,4,exp,yes,778,mixed,f,656,loss,0,524,0.6,30,0.4,50,LP-HP,f,1079,LP,no-win,18,20,LP,yes,-0.10526315789473684,0.5,0.5,0
10,28,male,Scottish,exp,6,6,exp,yes,723,mixed,f,696,win,0,404,0.8,20,0.2,30,LP-HP,j,576,HP,win,16,6,HP,yes,0.9090909090909092,-0.5,0.5,1
10,28,male,Scottish,exp,6,8,exp,yes,435,mixed,f,1296,loss,0,420,0.7,10,0.3,50,LP-HP,f,1127,LP,no-win,7,15,LP,yes,-0.7272727272727273,0.5,0.5,0
10,28,male,Scottish,exp,6,12,exp,no,1266,mixed,f,407,win,0,940,0.6,10,0.4,40,HP-LP,j,1728,LP,no-win,6,16,LP,yes,-0.9090909090909092,-0.5,-0.5,0
10,28,male,Scottish,exp,6,14,exp,no,1186,mixed,j,496,loss,0,636,0.8,10,0.2,20,LP-HP,j,712,HP,win,8,4,HP,yes,0.6666666666666666,0.5,-0.5,1
10,28,male,Scottish,exp,6,18,exp,yes,537,mixed,j,487,win,1,811,0.8,10,0.2,20,LP-HP,j,528,HP,win,8,4,HP,yes,0.6666666666666666,-0.5,0.5,1
10,28,male,Scottish,exp,6,20,exp,yes,810,mixed,f,567,win,0,516,0.7,10,0.3,30,HP-LP,j,687,LP,no-win,7,9,LP,yes,-0.25,-0.5,0.5,0
10,28,male,Scottish,exp,6,22,exp,no,1763,mixed,j,502,loss,0,692,0.6,20,0.4,50,LP-HP,j,1271,HP,no-win,12,20,LP,no,-0.5,0.5,-0.5,1
10,28,male,Scottish,exp,6,26,exp,no,401,mixed,f,471,win,0,388,0.7,30,0.3,40,HP-LP,f,727,HP,win,21,12,HP,yes,0.5454545454545454,-0.5,-0.5,1
10,28,male,Scottish,exp,6,28,exp,yes,385,mixed,j,512,loss,0,411,0.8,10,0.2,20,LP-HP,j,479,HP,win,8,4,HP,yes,0.6666666666666666,0.5,0.5,1
10,28,male,Scottish,exp,6,30,exp,no,849,mixed,f,472,loss,0,363,0.8,10,0.2,20,HP-LP,f,496,HP,win,8,4,HP,yes,0.6666666666666666,0.5,-0.5,1
10,28,male,Scottish,exp,6,32,exp,no,394,mixed,j,400,win,0,1899,0.7,20,0.3,30,HP-LP,f,607,HP,win,14,9,HP,yes,0.43478260869565216,-0.5,-0.5,1
10,28,male,Scottish,exp,6,36,exp,yes,872,mixed,f,424,win,1,386,0.6,10,0.4,40,HP-LP,f,808,HP,no-win,6,16,LP,no,-0.9090909090909092,-0.5,0.5,1
10,28,male,Scottish,exp,6,40,exp,yes,537,mixed,f,327,win,1,425,0.8,20,0.2,30,HP-LP,f,607,HP,no-win,16,6,HP,yes,0.9090909090909092,-0.5,0.5,1
10,28,male,Scottish,exp,6,42,exp,no,1801,mixed,f,495,win,0,339,0.7,10,0.3,30,LP-HP,j,216,HP,no-win,7,9,LP,no,-0.25,-0.5,-0.5,1
10,28,male,Scottish,exp,6,44,exp,no,346,mixed,j,415,win,0,435,0.7,20,0.3,30,LP-HP,j,440,HP,no-win,14,9,HP,yes,0.43478260869565216,-0.5,-0.5,1
10,28,male,Scottish,exp,6,46,exp,no,289,mixed,f,503,loss,0,130,0.6,10,0.4,40,HP-LP,j,896,LP,win,6,16,LP,yes,-0.9090909090909092,0.5,-0.5,0
10,28,male,Scottish,exp,6,48,exp,no,776,mixed,f,519,win,0,170,0.7,10,0.3,50,LP-HP,j,312,HP,no-win,7,15,LP,no,-0.7272727272727273,-0.5,-0.5,1
10,28,male,Scottish,exp,6,50,exp,yes,353,mixed,j,463,loss,1,418,0.8,10,0.2,20,HP-LP,f,512,HP,win,8,4,HP,yes,0.6666666666666666,0.5,0.5,1
100,32,female,British,exp,3,2,exp,no,1397,mixed,j,1050,win,0,716,0.7,10,0.3,30,HP-LP,f,1384,HP,no-win,7,9,LP,no,-0.25,-0.5,-0.5,1
100,32,female,British,exp,3,4,exp,no,739,mixed,f,1199,win,0,613,0.7,30,0.3,40,HP-LP,f,1844,HP,win,21,12,HP,yes,0.5454545454545454,-0.5,-0.5,1
100,32,female,British,exp,3,6,exp,no,617,mixed,j,1119,loss,0,568,0.7,30,0.3,40,LP-HP,j,1145,HP,win,21,12,HP,yes,0.5454545454545454,0.5,-0.5,1
100,32,female,British,exp,3,10,exp,no,538,mixed,j,1057,win,0,475,0.8,10,0.2,20,HP-LP,f,1339,HP,win,8,4,HP,yes,0.6666666666666666,-0.5,-0.5,1
100,32,female,British,exp,3,12,exp,yes,611,mixed,f,821,win,0,756,0.6,30,0.4,50,HP-LP,j,1636,LP,no-win,18,20,LP,yes,-0.10526315789473684,-0.5,0.5,0
100,32,female,British,exp,3,14,exp,no,490,mixed,j,1100,win,0,455,0.6,30,0.4,50,LP-HP,j,1281,HP,win,18,20,LP,no,-0.10526315789473684,-0.5,-0.5,1
100,32,female,British,exp,3,16,exp,yes,446,mixed,f,831,win,0,906,0.7,30,0.3,40,LP-HP,j,980,HP,no-win,21,12,HP,yes,0.5454545454545454,-0.5,0.5,1
100,32,female,British,exp,3,18,exp,no,470,mixed,j,498,win,0,491,0.6,20,0.4,50,LP-HP,j,1160,HP,win,12,20,LP,no,-0.5,-0.5,-0.5,1
100,32,female,British,exp,3,20,exp,yes,599,mixed,f,1479,loss,0,1255,0.7,10,0.3,30,LP-HP,j,1420,HP,win,7,9,LP,no,-0.25,0.5,0.5,1
100,32,female,British,exp,3,22,exp,no,641,mixed,j,1252,win,0,598,0.7,10,0.3,50,LP-HP,j,1314,HP,win,7,15,LP,no,-0.7272727272727273,-0.5,-0.5,1
100,32,female,British,exp,3,24,exp,yes,502,mixed,f,833,win,0,681,0.6,40,0.4,50,LP-HP,j,1296,HP,no-win,24,20,HP,yes,0.18181818181818185,-0.5,0.5,1
100,32,female,British,exp,3,26,exp,yes,544,mixed,j,920,loss,1,583,0.8,20,0.2,30,HP-LP,f,915,HP,win,16,6,HP,yes,0.9090909090909092,0.5,0.5,1
100,32,female,British,exp,3,28,exp,yes,778,mixed,j,867,win,0,740,0.7,10,0.3,30,HP-LP,f,1368,HP,no-win,7,9,LP,no,-0.25,-0.5,0.5,1
100,32,female,British,exp,3,32,exp,yes,615,mixed,j,913,win,0,475,0.6,10,0.4,40,HP-LP,j,1232,LP,win,6,16,LP,yes,-0.9090909090909092,-0.5,0.5,0
100,32,female,British,exp,3,34,exp,no,766,mixed,f,933,loss,0,539,0.6,30,0.4,50,LP-HP,j,1267,HP,win,18,20,LP,no,-0.10526315789473684,0.5,-0.5,1
100,32,female,British,exp,3,38,exp,no,1104,mixed,j,973,loss,0,588,0.6,40,0.4,50,HP-LP,j,1400,LP,no-win,24,20,HP,no,0.18181818181818185,0.5,-0.5,0
100,32,female,British,exp,3,42,exp,yes,863,mixed,j,844,loss,0,565,0.7,10,0.3,50,LP-HP,j,945,HP,win,7,15,LP,no,-0.7272727272727273,0.5,0.5,1
100,32,female,British,exp,3,44,exp,yes,476,mixed,f,857,loss,0,511,0.7,20,0.3,30,HP-LP,f,871,HP,win,14,9,HP,yes,0.43478260869565216,0.5,0.5,1
100,32,female,British,exp,3,46,exp,yes,691,mixed,j,603,win,1,593,0.8,10,0.2,20,LP-HP,j,1007,HP,win,8,4,HP,yes,0.6666666666666666,-0.5,0.5,1
100,32,female,British,exp,3,48,exp,no,474,mixed,f,885,loss,0,540,0.7,10,0.3,50,LP-HP,j,1242,HP,no-win,7,15,LP,no,-0.7272727272727273,0.5,-0.5,1
100,32,female,British,exp,4,2,exp,no,1396,mixed,f,988,win,0,439,0.8,20,0.2,30,LP-HP,j,942,HP,win,16,6,HP,yes,0.9090909090909092,-0.5,-0.5,1
100,32,female,British,exp,4,6,exp,yes,593,mixed,f,616,loss,0,447,0.6,30,0.4,50,LP-HP,j,1198,HP,no-win,18,20,LP,no,-0.10526315789473684,0.5,0.5,1
100,32,female,British,exp,4,10,exp,yes,450,mixed,j,837,win,0,354,0.6,10,0.4,40,LP-HP,f,1320,LP,no-win,6,16,LP,yes,-0.9090909090909092,-0.5,0.5,0
100,32,female,British,exp,4,12,exp,no,593,mixed,j,713,loss,0,412,0.8,10,0.2,20,HP-LP,f,1207,HP,win,8,4,HP,yes,0.6666666666666666,0.5,-0.5,1
100,32,female,British,exp,4,14,exp,no,553,mixed,j,595,loss,0,591,0.7,10,0.3,50,HP-LP,f,1923,HP,no-win,7,15,LP,no,-0.7272727272727273,0.5,-0.5,1
100,32,female,British,exp,4,16,exp,yes,365,mixed,j,624,loss,0,637,0.6,20,0.4,50,LP-HP,f,1448,LP,no-win,12,20,LP,yes,-0.5,0.5,0.5,0
100,32,female,British,exp,4,18,exp,yes,467,mixed,f,897,loss,0,457,0.6,40,0.4,50,LP-HP,f,1437,LP,win,24,20,HP,no,0.18181818181818185,0.5,0.5,0
100,32,female,British,exp,4,20,exp,no,495,mixed,j,799,loss,0,400,0.8,10,0.2,20,LP-HP,j,1351,HP,win,8,4,HP,yes,0.6666666666666666,0.5,-0.5,1
100,32,female,British,exp,4,22,exp,yes,607,mixed,f,850,win,0,574,0.7,10,0.3,50,HP-LP,f,1720,HP,win,7,15,LP,no,-0.7272727272727273,-0.5,0.5,1
100,32,female,British,exp,4,26,exp,yes,581,mixed,j,892,win,0,440,0.7,10,0.3,50,LP-HP,j,1302,HP,win,7,15,LP,no,-0.7272727272727273,-0.5,0.5,1
100,32,female,British,exp,4,30,exp,yes,574,mixed,j,863,loss,0,540,0.7,10,0.3,50,HP-LP,f,1589,HP,win,7,15,LP,no,-0.7272727272727273,0.5,0.5,1
100,32,female,British,exp,4,32,exp,yes,683,mixed,j,1309,loss,0,477,0.6,30,0.4,50,HP-LP,j,1817,LP,win,18,20,LP,yes,-0.10526315789473684,0.5,0.5,0
100,32,female,British,exp,4,34,exp,yes,1027,mixed,f,882,loss,0,433,0.7,10,0.3,30,HP-LP,f,1251,HP,win,7,9,LP,no,-0.25,0.5,0.5,1
100,32,female,British,exp,4,36,exp,no,519,mixed,j,860,loss,0,487,0.8,20,0.2,30,HP-LP,f,752,HP,win,16,6,HP,yes,0.9090909090909092,0.5,-0.5,1
100,32,female,British,exp,4,38,exp,no,533,mixed,j,738,loss,0,502,0.7,10,0.3,30,LP-HP,j,966,HP,win,7,9,LP,no,-0.25,0.5,-0.5,1
100,32,female,British,exp,4,40,exp,no,498,mixed,f,662,loss,0,482,0.6,30,0.4,50,HP-LP,j,1354,LP,win,18,20,LP,yes,-0.10526315789473684,0.5,-0.5,0
100,32,female,British,exp,4,42,exp,yes,652,mixed,f,1029,win,0,539,0.8,20,0.2,30,HP-LP,f,1043,HP,win,16,6,HP,yes,0.9090909090909092,-0.5,0.5,1
100,32,female,British,exp,4,48,exp,yes,473,mixed,j,936,win,0,458,0.7,30,0.3,40,HP-LP,f,1084,HP,no-win,21,12,HP,yes,0.5454545454545454,-0.5,0.5,1
100,32,female,British,exp,4,50,exp,yes,405,mixed,j,676,win,0,409,0.6,30,0.4,50,LP-HP,j,1943,HP,win,18,20,LP,no,-0.10526315789473684,-0.5,0.5,1
100,32,female,British,exp,4,52,exp,yes,596,mixed,f,761,win,0,955,0.6,20,0.4,50,LP-HP,j,1073,HP,win,12,20,LP,no,-0.5,-0.5,0.5,1
100,32,female,British,exp,5,4,exp,no,827,mixed,j,568,loss,0,628,0.6,20,0.4,50,HP-LP,f,1385,HP,win,12,20,LP,no,-0.5,0.5,-0.5,1
100,32,female,British,exp,5,6,exp,no,636,mixed,f,762,loss,0,722,0.6,40,0.4,50,LP-HP,j,934,HP,no-win,24,20,HP,yes,0.18181818181818185,0.5,-0.5,1
100,32,female,British,exp,5,8,exp,yes,519,mixed,f,627,win,0,501,0.8,20,0.2,30,LP-HP,j,1173,HP,win,16,6,HP,yes,0.9090909090909092,-0.5,0.5,1
100,32,female,British,exp,5,10,exp,no,437,mixed,f,719,win,0,485,0.6,20,0.4,50,HP-LP,j,1409,LP,no-win,12,20,LP,yes,-0.5,-0.5,-0.5,0
100,32,female,British,exp,5,14,exp,no,285,mixed,j,3396,loss,0,630,0.7,20,0.3,30,LP-HP,j,1159,HP,win,14,9,HP,yes,0.43478260869565216,0.5,-0.5,1
100,32,female,British,exp,5,16,exp,no,449,mixed,j,2199,win,0,662,0.8,20,0.2,30,HP-LP,f,1152,HP,win,16,6,HP,yes,0.9090909090909092,-0.5,-0.5,1
100,32,female,British,exp,5,18,exp,no,687,mixed,f,1963,loss,0,596,0.6,10,0.4,40,HP-LP,j,1398,LP,no-win,6,16,LP,yes,-0.9090909090909092,0.5,-0.5,0
100,32,female,British,exp,5,22,exp,yes,669,mixed,f,2989,loss,0,493,0.7,20,0.3,30,LP-HP,j,931,HP,no-win,14,9,HP,yes,0.43478260869565216,0.5,0.5,1
100,32,female,British,exp,5,24,exp,yes,430,mixed,f,706,win,0,670,0.7,20,0.3,30,LP-HP,j,1388,HP,win,14,9,HP,yes,0.43478260869565216,-0.5,0.5,1
100,32,female,British,exp,5,26,exp,yes,550,mixed,j,868,win,0,509,0.6,20,0.4,50,HP-LP,j,1810,LP,no-win,12,20,LP,yes,-0.5,-0.5,0.5,0
100,32,female,British,exp,5,30,exp,no,957,mixed,j,1162,win,0,609,0.6,40,0.4,50,HP-LP,f,1152,HP,win,24,20,HP,yes,0.18181818181818185,-0.5,-0.5,1
100,32,female,British,exp,5,32,exp,no,550,mixed,j,674,win,0,752,0.8,10,0.2,20,LP-HP,j,855,HP,win,8,4,HP,yes,0.6666666666666666,-0.5,-0.5,1
100,32,female,British,exp,5,34,exp,no,432,mixed,j,970,loss,0,536,0.8,20,0.2,30,LP-HP,j,1081,HP,win,16,6,HP,yes,0.9090909090909092,0.5,-0.5,1
100,32,female,British,exp,5,36,exp,yes,1023,mixed,j,842,win,0,769,0.6,40,0.4,50,HP-LP,f,1088,HP,win,24,20,HP,yes,0.18181818181818185,-0.5,0.5,1
100,32,female,British,exp,5,38,exp,yes,851,mixed,j,813,win,0,520,0.7,20,0.3,30,HP-LP,f,853,HP,win,14,9,HP,yes,0.43478260869565216,-0.5,0.5,1
100,32,female,British,exp,5,40,exp,yes,838,mixed,j,1084,loss,0,634,0.8,10,0.2,20,HP-LP,f,1194,HP,no-win,8,4,HP,yes,0.6666666666666666,0.5,0.5,1
100,32,female,British,exp,5,42,exp,no,475,mixed,j,1092,win,0,473,0.7,20,0.3,30,HP-LP,f,1034,HP,no-win,14,9,HP,yes,0.43478260869565216,-0.5,-0.5,1
100,32,female,British,exp,5,46,exp,no,384,mixed,j,983,win,0,621,0.7,10,0.3,30,LP-HP,j,1471,HP,no-win,7,9,LP,no,-0.25,-0.5,-0.5,1
100,32,female,British,exp,5,48,exp,no,859,mixed,j,1155,loss,0,539,0.6,20,0.4,50,LP-HP,j,1028,HP,win,12,20,LP,no,-0.5,0.5,-0.5,1
100,32,female,British,exp,5,50,exp,yes,482,mixed,j,747,loss,0,445,0.8,20,0.2,30,LP-HP,j,952,HP,win,16,6,HP,yes,0.9090909090909092,0.5,0.5,1
100,32,female,British,exp,6,2,exp,no,1070,mixed,j,868,loss,0,392,0.6,10,0.4,40,LP-HP,j,1440,HP,win,6,16,LP,no,-0.9090909090909092,0.5,-0.5,1
100,32,female,British,exp,6,8,exp,yes,648,mixed,j,1016,win,0,436,0.8,10,0.2,20,HP-LP,f,883,HP,win,8,4,HP,yes,0.6666666666666666,-0.5,0.5,1
100,32,female,British,exp,6,10,exp,no,496,mixed,j,521,loss,0,387,0.7,10,0.3,30,HP-LP,f,1396,HP,win,7,9,LP,no,-0.25,0.5,-0.5,1
100,32,female,British,exp,6,12,exp,yes,413,mixed,j,686,loss,0,955,0.6,10,0.4,40,LP-HP,f,431,LP,win,6,16,LP,yes,-0.9090909090909092,0.5,0.5,0
100,32,female,British,exp,6,14,exp,yes,1096,mixed,f,1239,loss,0,541,0.8,10,0.2,20,LP-HP,j,1016,HP,win,8,4,HP,yes,0.6666666666666666,0.5,0.5,1
100,32,female,British,exp,6,16,exp,yes,631,mixed,f,985,loss,0,426,0.7,30,0.3,40,HP-LP,f,964,HP,win,21,12,HP,yes,0.5454545454545454,0.5,0.5,1
100,32,female,British,exp,6,20,exp,yes,556,mixed,f,834,win,0,537,0.7,10,0.3,30,LP-HP,j,885,HP,win,7,9,LP,no,-0.25,-0.5,0.5,1
100,32,female,British,exp,6,22,exp,yes,467,mixed,f,781,loss,0,637,0.6,10,0.4,40,HP-LP,f,1969,HP,win,6,16,LP,no,-0.9090909090909092,0.5,0.5,1
100,32,female,British,exp,6,24,exp,yes,634,mixed,j,905,loss,1,1195,0.6,20,0.4,50,HP-LP,f,1102,HP,no-win,12,20,LP,no,-0.5,0.5,0.5,1
100,32,female,British,exp,6,26,exp,no,881,mixed,f,796,win,0,579,0.7,20,0.3,30,LP-HP,j,934,HP,no-win,14,9,HP,yes,0.43478260869565216,-0.5,-0.5,1
100,32,female,British,exp,6,30,exp,yes,438,mixed,f,794,loss,0,391,0.6,40,0.4,50,HP-LP,f,1194,HP,win,24,20,HP,yes,0.18181818181818185,0.5,0.5,1
100,32,female,British,exp,6,32,exp,no,495,mixed,f,843,win,0,392,0.6,10,0.4,40,LP-HP,f,2003,LP,no-win,6,16,LP,yes,-0.9090909090909092,-0.5,-0.5,0
100,32,female,British,exp,6,34,exp,no,472,mixed,j,847,win,0,369,0.6,10,0.4,40,HP-LP,f,865,HP,no-win,6,16,LP,no,-0.9090909090909092,-0.5,-0.5,1
100,32,female,British,exp,6,36,exp,yes,346,mixed,j,931,loss,1,534,0.7,30,0.3,40,LP-HP,j,853,HP,no-win,21,12,HP,yes,0.5454545454545454,0.5,0.5,1
100,32,female,British,exp,6,38,exp,no,428,mixed,f,852,win,0,455,0.7,30,0.3,40,LP-HP,j,1007,HP,no-win,21,12,HP,yes,0.5454545454545454,-0.5,-0.5,1
100,32,female,British,exp,6,40,exp,no,462,mixed,f,1468,loss,0,754,0.7,20,0.3,30,HP-LP,f,840,HP,win,14,9,HP,yes,0.43478260869565216,0.5,-0.5,1
100,32,female,British,exp,6,42,exp,no,603,mixed,j,674,win,0,438,0.7,10,0.3,50,HP-LP,f,1358,HP,win,7,15,LP,no,-0.7272727272727273,-0.5,-0.5,1
100,32,female,British,exp,6,44,exp,no,491,mixed,j,832,loss,0,356,0.7,30,0.3,40,HP-LP,f,905,HP,no-win,21,12,HP,yes,0.5454545454545454,0.5,-0.5,1
100,32,female,British,exp,6,50,exp,no,444,mixed,f,878,win,0,643,0.6,30,0.4,50,HP-LP,j,1499,LP,no-win,18,20,LP,yes,-0.10526315789473684,-0.5,-0.5,0
100,32,female,British,exp,6,52,exp,no,421,mixed,f,950,win,0,440,0.6,40,0.4,50,LP-HP,f,1941,LP,no-win,24,20,HP,no,0.18181818181818185,-0.5,-0.5,0
101,22,female,Hungarian,exp,3,2,exp,yes,1191,mixed,j,1352,loss,1,627,0.7,10,0.3,30,LP-HP,f,1872,LP,win,7,9,LP,yes,-0.25,0.5,0.5,0
101,22,female,Hungarian,exp,3,4,exp,no,1279,mixed,f,960,loss,0,738,0.6,20,0.4,50,LP-HP,f,1415,LP,no-win,12,20,LP,yes,-0.5,0.5,-0.5,0
101,22,female,Hungarian,exp,3,6,exp,yes,789,mixed,j,1224,win,1,402,0.8,20,0.2,30,HP-LP,f,1320,HP,win,16,6,HP,yes,0.9090909090909092,-0.5,0.5,1
101,22,female,Hungarian,exp,3,8,exp,yes,3047,mixed,f,1583,win,0,756,0.6,40,0.4,50,HP-LP,f,1256,HP,no-win,24,20,HP,yes,0.18181818181818185,-0.5,0.5,1
101,22,female,Hungarian,exp,3,10,exp,yes,1051,mixed,f,1608,loss,0,343,0.7,10,0.3,30,HP-LP,f,1287,HP,win,7,9,LP,no,-0.25,0.5,0.5,1
101,22,female,Hungarian,exp,3,16,exp,yes,821,mixed,j,1063,loss,0,480,0.6,30,0.4,50,LP-HP,f,1608,LP,no-win,18,20,LP,yes,-0.10526315789473684,0.5,0.5,0
101,22,female,Hungarian,exp,3,18,exp,no,597,mixed,f,776,win,0,2619,0.6,20,0.4,50,LP-HP,f,1800,LP,no-win,12,20,LP,yes,-0.5,-0.5,-0.5,0
101,22,female,Hungarian,exp,3,20,exp,no,851,mixed,j,2455,win,0,916,0.6,40,0.4,50,LP-HP,j,1448,HP,no-win,24,20,HP,yes,0.18181818181818185,-0.5,-0.5,1
101,22,female,Hungarian,exp,3,22,exp,no,715,mixed,f,744,loss,0,781,0.8,20,0.2,30,HP-LP,f,1384,HP,no-win,16,6,HP,yes,0.9090909090909092,0.5,-0.5,1
101,22,female,Hungarian,exp,3,24,exp,no,812,mixed,j,904,loss,0,653,0.7,20,0.3,30,LP-HP,j,2384,HP,win,14,9,HP,yes,0.43478260869565216,0.5,-0.5,1
101,22,female,Hungarian,exp,3,26,exp,yes,367,mixed,j,640,loss,0,378,0.8,20,0.2,30,HP-LP,f,1000,HP,no-win,16,6,HP,yes,0.9090909090909092,0.5,0.5,1
101,22,female,Hungarian,exp,3,30,exp,no,622,mixed,j,1872,loss,0,600,0.6,40,0.4,50,LP-HP,f,1064,LP,no-win,24,20,HP,no,0.18181818181818185,0.5,-0.5,0
101,22,female,Hungarian,exp,3,38,exp,no,951,mixed,j,904,win,0,618,0.6,10,0.4,40,LP-HP,f,1808,LP,no-win,6,16,LP,yes,-0.9090909090909092,-0.5,-0.5,0
101,22,female,Hungarian,exp,3,40,exp,yes,337,mixed,f,735,loss,0,688,0.7,10,0.3,50,LP-HP,j,1775,HP,no-win,7,15,LP,no,-0.7272727272727273,0.5,0.5,1
101,22,female,Hungarian,exp,3,42,exp,no,841,mixed,j,904,win,0,761,0.7,10,0.3,50,HP-LP,j,1192,LP,win,7,15,LP,yes,-0.7272727272727273,-0.5,-0.5,0
101,22,female,Hungarian,exp,3,44,exp,yes,2501,mixed,j,2863,win,1,441,0.6,40,0.4,50,LP-HP,f,1224,LP,win,24,20,HP,no,0.18181818181818185,-0.5,0.5,0
101,22,female,Hungarian,exp,3,46,exp,yes,536,mixed,j,1000,win,0,633,0.6,10,0.4,40,HP-LP,f,2063,HP,win,6,16,LP,no,-0.9090909090909092,-0.5,0.5,1
101,22,female,Hungarian,exp,3,48,exp,yes,1162,mixed,j,2391,loss,0,557,0.7,20,0.3,30,LP-HP,f,1031,LP,win,14,9,HP,no,0.43478260869565216,0.5,0.5,0
101,22,female,Hungarian,exp,3,50,exp,no,753,mixed,f,1159,win,0,747,0.8,10,0.2,20,LP-HP,j,968,HP,no-win,8,4,HP,yes,0.6666666666666666,-0.5,-0.5,1
101,22,female,Hungarian,exp,3,52,exp,no,3041,mixed,j,608,loss,0,758,0.6,40,0.4,50,HP-LP,f,1615,HP,win,24,20,HP,yes,0.18181818181818185,0.5,-0.5,1
101,22,female,Hungarian,exp,4,4,exp,yes,1173,mixed,f,607,win,1,365,0.6,30,0.4,50,HP-LP,f,1096,HP,win,18,20,LP,no,-0.10526315789473684,-0.5,0.5,1
101,22,female,Hungarian,exp,4,6,exp,no,1051,mixed,j,735,loss,0,628,0.8,20,0.2,30,LP-HP,j,968,HP,win,16,6,HP,yes,0.9090909090909092,0.5,-0.5,1
101,22,female,Hungarian,exp,4,8,exp,yes,630,mixed,j,1000,win,0,409,0.7,10,0.3,50,LP-HP,f,1255,LP,no-win,7,15,LP,yes,-0.7272727272727273,-0.5,0.5,0
101,22,female,Hungarian,exp,4,12,exp,yes,978,mixed,j,1000,win,0,3387,0.7,10,0.3,50,HP-LP,f,840,HP,win,7,15,LP,no,-0.7272727272727273,-0.5,0.5,1
101,22,female,Hungarian,exp,4,16,exp,no,477,mixed,j,776,win,0,1937,0.6,30,0.4,50,LP-HP,f,1672,LP,win,18,20,LP,yes,-0.10526315789473684,-0.5,-0.5,0
101,22,female,Hungarian,exp,4,18,exp,no,522,mixed,j,904,win,0,813,0.7,10,0.3,30,LP-HP,f,1160,LP,win,7,9,LP,yes,-0.25,-0.5,-0.5,0
101,22,female,Hungarian,exp,4,20,exp,yes,979,mixed,f,871,win,0,341,0.6,30,0.4,50,LP-HP,f,1159,LP,win,18,20,LP,yes,-0.10526315789473684,-0.5,0.5,0
101,22,female,Hungarian,exp,4,22,exp,yes,3632,mixed,j,1224,loss,0,632,0.7,10,0.3,50,HP-LP,f,1000,HP,win,7,15,LP,no,-0.7272727272727273,0.5,0.5,1
101,22,female,Hungarian,exp,4,26,exp,no,1623,mixed,f,1224,win,0,672,0.8,10,0.2,20,HP-LP,f,904,HP,no-win,8,4,HP,yes,0.6666666666666666,-0.5,-0.5,1
101,22,female,Hungarian,exp,4,28,exp,no,2788,mixed,j,1416,win,0,692,0.7,30,0.3,40,LP-HP,f,936,LP,no-win,21,12,HP,no,0.5454545454545454,-0.5,-0.5,0
101,22,female,Hungarian,exp,4,30,exp,yes,688,mixed,f,680,win,0,466,0.6,20,0.4,50,HP-LP,j,968,LP,no-win,12,20,LP,yes,-0.5,-0.5,0.5,0
101,22,female,Hungarian,exp,4,32,exp,no,599,mixed,j,711,loss,0,1944,0.7,30,0.3,40,HP-LP,f,1191,HP,win,21,12,HP,yes,0.5454545454545454,0.5,-0.5,1
101,22,female,Hungarian,exp,4,34,exp,no,1203,mixed,j,799,loss,0,2169,0.8,10,0.2,20,HP-LP,f,735,HP,win,8,4,HP,yes,0.6666666666666666,0.5,-0.5,1
101,22,female,Hungarian,exp,4,36,exp,no,622,mixed,f,743,loss,0,2908,0.7,10,0.3,50,LP-HP,f,1191,LP,win,7,15,LP,yes,-0.7272727272727273,0.5,-0.5,0
101,22,female,Hungarian,exp,4,40,exp,yes,945,mixed,f,1095,win,0,371,0.7,20,0.3,30,HP-LP,f,1416,HP,win,14,9,HP,yes,0.43478260869565216,-0.5,0.5,1
101,22,female,Hungarian,exp,4,42,exp,no,426,mixed,j,711,loss,0,548,0.7,10,0.3,50,HP-LP,j,936,LP,no-win,7,15,LP,yes,-0.7272727272727273,0.5,-0.5,0
101,22,female,Hungarian,exp,4,46,exp,no,2046,mixed,j,639,loss,0,1145,0.6,30,0.4,50,HP-LP,j,936,LP,no-win,18,20,LP,yes,-0.10526315789473684,0.5,-0.5,0
101,22,female,Hungarian,exp,4,48,exp,yes,232,mixed,f,360,loss,0,460,0.6,20,0.4,50,LP-HP,f,895,LP,win,12,20,LP,yes,-0.5,0.5,0.5,0
101,22,female,Hungarian,exp,4,50,exp,no,729,mixed,j,1160,loss,0,4269,0.6,20,0.4,50,HP-LP,j,671,LP,win,12,20,LP,yes,-0.5,0.5,-0.5,0
101,22,female,Hungarian,exp,4,52,exp,yes,364,mixed,j,808,loss,0,344,0.8,10,0.2,20,HP-LP,j,2383,LP,no-win,8,4,HP,no,0.6666666666666666,0.5,0.5,0
101,22,female,Hungarian,exp,5,2,exp,no,3383,mixed,f,775,win,0,774,0.6,30,0.4,50,HP-LP,j,1223,LP,no-win,18,20,LP,yes,-0.10526315789473684,-0.5,-0.5,0
101,22,female,Hungarian,exp,5,4,exp,yes,725,mixed,j,904,win,0,292,0.6,20,0.4,50,LP-HP,f,703,LP,no-win,12,20,LP,yes,-0.5,-0.5,0.5,0
101,22,female,Hungarian,exp,5,6,exp,no,697,mixed,f,767,loss,0,662,0.7,10,0.3,30,LP-HP,f,999,LP,win,7,9,LP,yes,-0.25,0.5,-0.5,0
101,22,female,Hungarian,exp,5,8,exp,no,307,mixed,j,776,win,0,748,0.6,10,0.4,40,HP-LP,j,967,LP,no-win,6,16,LP,yes,-0.9090909090909092,-0.5,-0.5,0
101,22,female,Hungarian,exp,5,10,exp,yes,362,mixed,f,712,win,0,575,0.8,20,0.2,30,LP-HP,j,1127,HP,win,16,6,HP,yes,0.9090909090909092,-0.5,0.5,1
101,22,female,Hungarian,exp,5,12,exp,yes,402,mixed,j,704,loss,0,441,0.6,30,0.4,50,HP-LP,f,1031,HP,win,18,20,LP,no,-0.10526315789473684,0.5,0.5,1
101,22,female,Hungarian,exp,5,16,exp,yes,959,mixed,j,1096,win,0,698,0.8,10,0.2,20,LP-HP,j,1511,HP,win,8,4,HP,yes,0.6666666666666666,-0.5,0.5,1
101,22,female,Hungarian,exp,5,22,exp,yes,405,mixed,j,1064,win,0,398,0.7,10,0.3,30,HP-LP,f,552,HP,win,7,9,LP,no,-0.25,-0.5,0.5,1
101,22,female,Hungarian,exp,5,24,exp,no,662,mixed,f,744,win,0,586,0.7,20,0.3,30,HP-LP,f,1872,HP,win,14,9,HP,yes,0.43478260869565216,-0.5,-0.5,1
101,22,female,Hungarian,exp,5,28,exp,no,396,mixed,j,1416,loss,0,425,0.7,30,0.3,40,LP-HP,f,2120,LP,win,21,12,HP,no,0.5454545454545454,0.5,-0.5,0
101,22,female,Hungarian,exp,5,30,exp,yes,853,mixed,f,895,loss,0,371,0.7,30,0.3,40,HP-LP,f,808,HP,no-win,21,12,HP,yes,0.5454545454545454,0.5,0.5,1
101,22,female,Hungarian,exp,5,32,exp,no,1002,mixed,j,840,win,0,913,0.8,20,0.2,30,HP-LP,j,1904,LP,no-win,16,6,HP,no,0.9090909090909092,-0.5,-0.5,0
101,22,female,Hungarian,exp,5,36,exp,yes,684,mixed,j,1224,win,0,410,0.7,30,0.3,40,LP-HP,j,1192,HP,win,21,12,HP,yes,0.5454545454545454,-0.5,0.5,1
101,22,female,Hungarian,exp,5,38,exp,yes,751,mixed,f,1160,win,0,1207,0.7,10,0.3,30,LP-HP,j,3311,HP,win,7,9,LP,no,-0.25,-0.5,0.5,1
101,22,female,Hungarian,exp,5,40,exp,yes,2244,mixed,j,2576,loss,0,488,0.7,20,0.3,30,HP-LP,f,840,HP,win,14,9,HP,yes,0.43478260869565216,0.5,0.5,1
101,22,female,Hungarian,exp,5,42,exp,no,1559,mixed,j,767,win,0,419,0.6,40,0.4,50,HP-LP,j,1032,LP,no-win,24,20,HP,no,0.18181818181818185,-0.5,-0.5,0
101,22,female,Hungarian,exp,5,44,exp,no,497,mixed,j,904,loss,0,612,0.7,10,0.3,30,HP-LP,f,1351,HP,win,7,9,LP,no,-0.25,0.5,-0.5,1
101,22,female,Hungarian,exp,5,48,exp,yes,755,mixed,j,935,loss,0,1073,0.6,10,0.4,40,LP-HP,f,967,LP,no-win,6,16,LP,yes,-0.9090909090909092,0.5,0.5,0
101,22,female,Hungarian,exp,5,50,exp,no,1186,mixed,f,960,win,0,811,0.6,20,0.4,50,HP-LP,j,1896,LP,win,12,20,LP,yes,-0.5,-0.5,-0.5,0
101,22,female,Hungarian,exp,5,52,exp,yes,554,mixed,j,872,loss,0,460,0.6,10,0.4,40,HP-LP,j,1544,LP,no-win,6,16,LP,yes,-0.9090909090909092,0.5,0.5,0
101,22,female,Hungarian,exp,6,2,exp,no,998,mixed,f,800,loss,0,921,0.8,10,0.2,20,LP-HP,j,991,HP,win,8,4,HP,yes,0.6666666666666666,0.5,-0.5,1
101,22,female,Hungarian,exp,6,6,exp,yes,367,mixed,f,680,loss,1,355,0.8,10,0.2,20,LP-HP,j,1096,HP,win,8,4,HP,yes,0.6666666666666666,0.5,0.5,1
101,22,female,Hungarian,exp,6,8,exp,yes,398,mixed,j,863,win,0,523,0.7,30,0.3,40,HP-LP,f,1423,HP,win,21,12,HP,yes,0.5454545454545454,-0.5,0.5,1
101,22,female,Hungarian,exp,6,10,exp,yes,458,mixed,f,1159,loss,0,724,0.6,20,0.4,50,HP-LP,j,1192,LP,no-win,12,20,LP,yes,-0.5,0.5,0.5,0
101,22,female,Hungarian,exp,6,14,exp,yes,403,mixed,j,735,loss,0,463,0.8,20,0.2,30,LP-HP,j,1224,HP,win,16,6,HP,yes,0.9090909090909092,0.5,0.5,1
101,22,female,Hungarian,exp,6,16,exp,no,795,mixed,j,991,loss,0,820,0.6,10,0.4,40,HP-LP,j,1223,LP,no-win,6,16,LP,yes,-0.9090909090909092,0.5,-0.5,0
101,22,female,Hungarian,exp,6,18,exp,no,433,mixed,f,776,win,0,577,0.7,10,0.3,50,LP-HP,j,1127,HP,win,7,15,LP,no,-0.7272727272727273,-0.5,-0.5,1
101,22,female,Hungarian,exp,6,24,exp,yes,626,mixed,f,808,win,0,2499,0.8,10,0.2,20,HP-LP,f,871,HP,win,8,4,HP,yes,0.6666666666666666,-0.5,0.5,1
101,22,female,Hungarian,exp,6,26,exp,yes,1047,mixed,j,928,loss,0,482,0.7,30,0.3,40,LP-HP,j,1416,HP,win,21,12,HP,yes,0.5454545454545454,0.5,0.5,1
101,22,female,Hungarian,exp,6,28,exp,yes,2984,mixed,f,903,win,0,821,0.6,10,0.4,40,LP-HP,f,807,LP,no-win,6,16,LP,yes,-0.9090909090909092,-0.5,0.5,0
101,22,female,Hungarian,exp,6,32,exp,yes,434,mixed,f,775,loss,0,367,0.6,40,0.4,50,LP-HP,f,840,LP,no-win,24,20,HP,no,0.18181818181818185,0.5,0.5,0
101,22,female,Hungarian,exp,6,34,exp,no,810,mixed,j,671,loss,0,393,0.7,20,0.3,30,HP-LP,f,808,HP,no-win,14,9,HP,yes,0.43478260869565216,0.5,-0.5,1
101,22,female,Hungarian,exp,6,36,exp,yes,301,mixed,f,480,loss,0,464,0.6,40,0.4,50,HP-LP,f,480,HP,no-win,24,20,HP,yes,0.18181818181818185,0.5,0.5,1
101,22,female,Hungarian,exp,6,38,exp,no,334,mixed,f,423,win,0,406,0.7,30,0.3,40,HP-LP,f,647,HP,win,21,12,HP,yes,0.5454545454545454,-0.5,-0.5,1
101,22,female,Hungarian,exp,6,40,exp,yes,334,mixed,f,703,win,0,597,0.7,20,0.3,30,LP-HP,j,1087,HP,win,14,9,HP,yes,0.43478260869565216,-0.5,0.5,1
101,22,female,Hungarian,exp,6,42,exp,no,507,mixed,j,903,win,0,451,0.7,10,0.3,30,HP-LP,f,680,HP,no-win,7,9,LP,no,-0.25,-0.5,-0.5,1
101,22,female,Hungarian,exp,6,44,exp,no,557,mixed,f,640,loss,0,492,0.6,10,0.4,40,LP-HP,f,1352,LP,no-win,6,16,LP,yes,-0.9090909090909092,0.5,-0.5,0
101,22,female,Hungarian,exp,6,46,exp,no,461,mixed,j,511,win,0,685,0.7,20,0.3,30,LP-HP,j,967,HP,no-win,14,9,HP,yes,0.43478260869565216,-0.5,-0.5,1
101,22,female,Hungarian,exp,6,48,exp,no,342,mixed,f,416,loss,0,561,0.6,30,0.4,50,LP-HP,f,1032,LP,win,18,20,LP,yes,-0.10526315789473684,0.5,-0.5,0
101,22,female,Hungarian,exp,6,50,exp,no,559,mixed,j,3736,win,0,560,0.8,20,0.2,30,LP-HP,j,767,HP,win,16,6,HP,yes,0.9090909090909092,-0.5,-0.5,1
102,28,male,Polish,exp,3,2,exp,no,1958,mixed,j,825,win,0,730,0.7,10,0.3,50,LP-HP,f,3707,LP,win,7,15,LP,yes,-0.7272727272727273,-0.5,-0.5,0
102,28,male,Polish,exp,3,4,exp,yes,613,mixed,j,803,win,0,504,0.6,40,0.4,50,LP-HP,j,2288,HP,win,24,20,HP,yes,0.18181818181818185,-0.5,0.5,1
102,28,male,Polish,exp,3,8,exp,no,443,mixed,j,869,win,1,516,0.7,30,0.3,40,LP-HP,j,2641,HP,win,21,12,HP,yes,0.5454545454545454,-0.5,-0.5,1
102,28,male,Polish,exp,3,10,exp,yes,354,mixed,j,660,loss,0,457,0.8,20,0.2,30,LP-HP,j,2563,HP,no-win,16,6,HP,yes,0.9090909090909092,0.5,0.5,1
102,28,male,Polish,exp,3,12,exp,yes,390,mixed,f,847,win,0,540,0.6,20,0.4,50,LP-HP,f,2629,LP,win,12,20,LP,yes,-0.5,-0.5,0.5,0
102,28,male,Polish,exp,3,14,exp,yes,435,mixed,j,715,win,0,498,0.6,30,0.4,50,HP-LP,f,2563,HP,win,18,20,LP,no,-0.10526315789473684,-0.5,0.5,1
102,28,male,Polish,exp,3,18,exp,no,458,mixed,j,704,win,0,422,0.6,20,0.4,50,LP-HP,f,1111,LP,win,12,20,LP,yes,-0.5,-0.5,-0.5,0
102,28,male,Polish,exp,3,22,exp,no,356,mixed,j,616,loss,0,254,0.7,20,0.3,30,LP-HP,j,2475,HP,no-win,14,9,HP,yes,0.43478260869565216,0.5,-0.5,1
102,28,male,Polish,exp,3,24,exp,yes,478,mixed,f,286,loss,0,438,0.6,30,0.4,50,LP-HP,f,308,LP,win,18,20,LP,yes,-0.10526315789473684,0.5,0.5,0
102,28,male,Polish,exp,3,26,exp,yes,419,mixed,f,704,win,0,2647,0.8,10,0.2,20,HP-LP,f,3838,HP,no-win,8,4,HP,yes,0.6666666666666666,-0.5,0.5,1
102,28,male,Polish,exp,3,28,exp,yes,575,mixed,j,3971,loss,0,462,0.7,10,0.3,50,LP-HP,f,2233,LP,win,7,15,LP,yes,-0.7272727272727273,0.5,0.5,0
102,28,male,Polish,exp,3,30,exp,yes,443,mixed,j,968,loss,0,470,0.6,40,0.4,50,LP-HP,j,4609,HP,no-win,24,20,HP,yes,0.18181818181818185,0.5,0.5,1
102,28,male,Polish,exp,3,34,exp,no,388,mixed,f,980,win,0,413,0.8,20,0.2,30,HP-LP,f,1563,HP,win,16,6,HP,yes,0.9090909090909092,-0.5,-0.5,1
102,28,male,Polish,exp,3,36,exp,no,328,mixed,j,363,win,1,474,0.6,40,0.4,50,LP-HP,f,3014,LP,win,24,20,HP,no,0.18181818181818185,-0.5,-0.5,0
102,28,male,Polish,exp,3,38,exp,no,331,mixed,j,374,win,1,466,0.6,10,0.4,40,LP-HP,f,1925,LP,win,6,16,LP,yes,-0.9090909090909092,-0.5,-0.5,0
102,28,male,Polish,exp,3,40,exp,yes,291,mixed,f,979,win,0,422,0.8,20,0.2,30,LP-HP,j,1991,HP,win,16,6,HP,yes,0.9090909090909092,-0.5,0.5,1
102,28,male,Polish,exp,3,42,exp,no,380,mixed,j,781,loss,0,210,0.7,10,0.3,30,LP-HP,f,2343,LP,no-win,7,9,LP,yes,-0.25,0.5,-0.5,0
102,28,male,Polish,exp,3,48,exp,no,302,mixed,j,517,win,0,518,0.7,10,0.3,30,HP-LP,j,7623,LP,no-win,7,9,LP,yes,-0.25,-0.5,-0.5,0
102,28,male,Polish,exp,3,50,exp,no,416,mixed,j,495,loss,0,205,0.7,30,0.3,40,HP-LP,f,2915,HP,win,21,12,HP,yes,0.5454545454545454,0.5,-0.5,1
102,28,male,Polish,exp,3,52,exp,no,398,mixed,j,583,loss,0,474,0.6,40,0.4,50,HP-LP,f,2618,HP,no-win,24,20,HP,yes,0.18181818181818185,0.5,-0.5,1
102,28,male,Polish,exp,4,2,exp,yes,852,mixed,j,572,win,0,454,0.7,30,0.3,40,HP-LP,f,2464,HP,no-win,21,12,HP,yes,0.5454545454545454,-0.5,0.5,1
102,28,male,Polish,exp,4,6,exp,yes,344,mixed,j,528,loss,1,447,0.6,20,0.4,50,LP-HP,f,1541,LP,win,12,20,LP,yes,-0.5,0.5,0.5,0
102,28,male,Polish,exp,4,8,exp,no,314,mixed,f,627,loss,0,264,0.8,20,0.2,30,HP-LP,f,2959,HP,win,16,6,HP,yes,0.9090909090909092,0.5,-0.5,1
102,28,male,Polish,exp,4,10,exp,yes,368,mixed,f,545,loss,0,408,0.7,30,0.3,40,HP-LP,f,1122,HP,win,21,12,HP,yes,0.5454545454545454,0.5,0.5,1
102,28,male,Polish,exp,4,12,exp,yes,656,mixed,f,594,loss,1,436,0.7,30,0.3,40,LP-HP,j,4675,HP,no-win,21,12,HP,yes,0.5454545454545454,0.5,0.5,1
102,28,male,Polish,exp,4,14,exp,no,563,mixed,f,1694,win,0,415,0.6,20,0.4,50,HP-LP,j,4400,LP,no-win,12,20,LP,yes,-0.5,-0.5,-0.5,0
102,28,male,Polish,exp,4,16,exp,yes,262,mixed,j,1100,win,0,634,0.8,10,0.2,20,LP-HP,j,2299,HP,win,8,4,HP,yes,0.6666666666666666,-0.5,0.5,1
102,28,male,Polish,exp,4,18,exp,yes,657,mixed,f,1573,win,0,509,0.7,10,0.3,30,LP-HP,f,528,LP,no-win,7,9,LP,yes,-0.25,-0.5,0.5,0
102,28,male,Polish,exp,4,20,exp,yes,321,mixed,j,1551,loss,0,410,0.7,20,0.3,30,LP-HP,j,4730,HP,win,14,9,HP,yes,0.43478260869565216,0.5,0.5,1
102,28,male,Polish,exp,4,26,exp,no,435,mixed,j,759,loss,0,537,0.6,10,0.4,40,LP-HP,f,3762,LP,win,6,16,LP,yes,-0.9090909090909092,0.5,-0.5,0
102,28,male,Polish,exp,4,28,exp,yes,304,mixed,f,1287,loss,0,545,0.8,10,0.2,20,HP-LP,f,3003,HP,no-win,8,4,HP,yes,0.6666666666666666,0.5,0.5,1
102,28,male,Polish,exp,4,30,exp,no,649,mixed,j,847,loss,0,256,0.7,20,0.3,30,HP-LP,f,4400,HP,win,14,9,HP,yes,0.43478260869565216,0.5,-0.5,1
102,28,male,Polish,exp,4,32,exp,no,330,mixed,j,1298,loss,0,296,0.7,10,0.3,50,HP-LP,j,1770,LP,no-win,7,15,LP,yes,-0.7272727272727273,0.5,-0.5,0
102,28,male,Polish,exp,4,34,exp,no,307,mixed,j,660,loss,0,246,0.7,30,0.3,40,LP-HP,j,2496,HP,win,21,12,HP,yes,0.5454545454545454,0.5,-0.5,1
102,28,male,Polish,exp,4,36,exp,yes,260,mixed,j,616,loss,1,557,0.7,10,0.3,30,LP-HP,f,2628,LP,no-win,7,9,LP,yes,-0.25,0.5,0.5,0
102,28,male,Polish,exp,4,40,exp,yes,209,mixed,j,583,loss,0,520,0.6,10,0.4,40,HP-LP,j,1969,LP,win,6,16,LP,yes,-0.9090909090909092,0.5,0.5,0
102,28,male,Polish,exp,4,44,exp,no,288,mixed,f,682,loss,0,312,0.6,20,0.4,50,LP-HP,f,2046,LP,win,12,20,LP,yes,-0.5,0.5,-0.5,0
102,28,male,Polish,exp,4,48,exp,no,415,mixed,f,561,win,0,489,0.8,20,0.2,30,LP-HP,j,1749,HP,win,16,6,HP,yes,0.9090909090909092,-0.5,-0.5,1
102,28,male,Polish,exp,4,50,exp,no,573,mixed,f,539,win,0,530,0.6,30,0.4,50,HP-LP,f,2805,HP,no-win,18,20,LP,no,-0.10526315789473684,-0.5,-0.5,1
102,28,male,Polish,exp,4,52,exp,no,382,mixed,f,913,loss,0,498,0.6,40,0.4,50,LP-HP,j,4675,HP,no-win,24,20,HP,yes,0.18181818181818185,0.5,-0.5,1
102,28,male,Polish,exp,5,4,exp,yes,887,mixed,f,638,win,0,564,0.6,10,0.4,40,HP-LP,j,1408,LP,no-win,6,16,LP,yes,-0.9090909090909092,-0.5,0.5,0
102,28,male,Polish,exp,5,6,exp,no,312,mixed,f,1584,loss,0,283,0.8,20,0.2,30,LP-HP,j,2068,HP,win,16,6,HP,yes,0.9090909090909092,0.5,-0.5,1
102,28,male,Polish,exp,5,10,exp,no,819,mixed,j,593,win,0,238,0.7,20,0.3,30,LP-HP,j,1134,HP,win,14,9,HP,yes,0.43478260869565216,-0.5,-0.5,1
102,28,male,Polish,exp,5,14,exp,yes,367,mixed,j,715,win,0,458,0.7,10,0.3,50,HP-LP,j,1716,LP,no-win,7,15,LP,yes,-0.7272727272727273,-0.5,0.5,0
102,28,male,Polish,exp,5,16,exp,no,502,mixed,j,517,win,0,251,0.8,10,0.2,20,HP-LP,f,2596,HP,win,8,4,HP,yes,0.6666666666666666,-0.5,-0.5,1
102,28,male,Polish,exp,5,18,exp,yes,429,mixed,f,539,win,1,400,0.6,30,0.4,50,LP-HP,f,1397,LP,win,18,20,LP,yes,-0.10526315789473684,-0.5,0.5,0
102,28,male,Polish,exp,5,20,exp,yes,251,mixed,f,539,loss,1,401,0.6,30,0.4,50,HP-LP,j,1892,LP,no-win,18,20,LP,yes,-0.10526315789473684,0.5,0.5,0
102,28,male,Polish,exp,5,22,exp,no,281,mixed,j,473,loss,0,273,0.8,10,0.2,20,LP-HP,j,308,HP,no-win,8,4,HP,yes,0.6666666666666666,0.5,-0.5,1
102,28,male,Polish,exp,5,28,exp,yes,449,mixed,f,506,loss,0,428,0.7,10,0.3,50,HP-LP,j,2090,LP,no-win,7,15,LP,yes,-0.7272727272727273,0.5,0.5,0
102,28,male,Polish,exp,5,30,exp,yes,488,mixed,j,627,loss,0,430,0.7,20,0.3,30,HP-LP,f,1485,HP,win,14,9,HP,yes,0.43478260869565216,0.5,0.5,1
102,28,male,Polish,exp,5,32,exp,yes,482,mixed,f,528,win,1,574,0.6,10,0.4,40,LP-HP,f,2321,LP,win,6,16,LP,yes,-0.9090909090909092,-0.5,0.5,0
102,28,male,Polish,exp,5,34,exp,yes,318,mixed,f,484,win,0,437,0.7,10,0.3,30,HP-LP,j,1463,LP,no-win,7,9,LP,yes,-0.25,-0.5,0.5,0
102,28,male,Polish,exp,5,36,exp,no,366,mixed,j,495,win,0,242,0.6,10,0.4,40,HP-LP,j,1353,LP,no-win,6,16,LP,yes,-0.9090909090909092,-0.5,-0.5,0
102,28,male,Polish,exp,5,38,exp,no,482,mixed,f,748,loss,0,262,0.6,20,0.4,50,HP-LP,j,1540,LP,win,12,20,LP,yes,-0.5,0.5,-0.5,0
102,28,male,Polish,exp,5,40,exp,no,425,mixed,f,296,win,0,265,0.7,10,0.3,30,LP-HP,f,8073,LP,no-win,7,9,LP,yes,-0.25,-0.5,-0.5,0
102,28,male,Polish,exp,5,44,exp,no,307,mixed,f,715,win,0,276,0.7,10,0.3,50,HP-LP,j,4664,LP,win,7,15,LP,yes,-0.7272727272727273,-0.5,-0.5,0
102,28,male,Polish,exp,5,46,exp,no,312,mixed,f,462,loss,0,279,0.8,10,0.2,20,HP-LP,f,1859,HP,no-win,8,4,HP,yes,0.6666666666666666,0.5,-0.5,1
102,28,male,Polish,exp,5,48,exp,yes,331,mixed,f,506,win,0,459,0.7,20,0.3,30,HP-LP,f,3652,HP,no-win,14,9,HP,yes,0.43478260869565216,-0.5,0.5,1
102,28,male,Polish,exp,5,50,exp,no,239,mixed,f,572,win,0,248,0.6,30,0.4,50,LP-HP,j,3960,HP,no-win,18,20,LP,no,-0.10526315789473684,-0.5,-0.5,1
102,28,male,Polish,exp,5,52,exp,no,244,mixed,f,484,win,0,558,0.7,30,0.3,40,HP-LP,f,1925,HP,no-win,21,12,HP,yes,0.5454545454545454,-0.5,-0.5,1
102,28,male,Polish,exp,6,2,exp,no,1022,mixed,f,2288,loss,0,325,0.6,10,0.4,40,HP-LP,j,1782,LP,no-win,6,16,LP,yes,-0.9090909090909092,0.5,-0.5,0
102,28,male,Polish,exp,6,6,exp,no,585,mixed,f,462,win,0,248,0.7,20,0.3,30,HP-LP,f,2838,HP,no-win,14,9,HP,yes,0.43478260869565216,-0.5,-0.5,1
102,28,male,Polish,exp,6,8,exp,no,280,mixed,j,1023,win,0,271,0.6,40,0.4,50,HP-LP,f,2893,HP,no-win,24,20,HP,yes,0.18181818181818185,-0.5,-0.5,1
102,28,male,Polish,exp,6,10,exp,no,320,mixed,j,462,loss,0,239,0.6,30,0.4,50,LP-HP,f,1991,LP,no-win,18,20,LP,yes,-0.10526315789473684,0.5,-0.5,0
102,28,male,Polish,exp,6,12,exp,yes,322,mixed,f,473,win,0,362,0.7,30,0.3,40,LP-HP,j,3960,HP,no-win,21,12,HP,yes,0.5454545454545454,-0.5,0.5,1
102,28,male,Polish,exp,6,14,exp,yes,280,mixed,j,485,win,0,360,0.7,10,0.3,50,LP-HP,f,2497,LP,no-win,7,15,LP,yes,-0.7272727272727273,-0.5,0.5,0
102,28,male,Polish,exp,6,16,exp,yes,282,mixed,f,538,loss,0,452,0.6,40,0.4,50,HP-LP,f,1816,HP,no-win,24,20,HP,yes,0.18181818181818185,0.5,0.5,1
102,28,male,Polish,exp,6,18,exp,yes,333,mixed,f,362,loss,0,552,0.6,20,0.4,50,HP-LP,f,308,HP,win,12,20,LP,no,-0.5,0.5,0.5,1
102,28,male,Polish,exp,6,20,exp,no,467,mixed,j,583,loss,0,295,0.6,30,0.4,50,HP-LP,j,1705,LP,no-win,18,20,LP,yes,-0.10526315789473684,0.5,-0.5,0
102,28,male,Polish,exp,6,22,exp,yes,235,mixed,j,539,loss,0,299,0.6,10,0.4,40,LP-HP,f,1280,LP,no-win,6,16,LP,yes,-0.9090909090909092,0.5,0.5,0
102,28,male,Polish,exp,6,24,exp,yes,270,mixed,f,506,loss,0,270,0.7,10,0.3,30,HP-LP,j,2684,LP,no-win,7,9,LP,yes,-0.25,0.5,0.5,0
102,28,male,Polish,exp,6,26,exp,yes,288,mixed,j,484,win,1,475,0.6,20,0.4,50,HP-LP,j,2926,LP,win,12,20,LP,yes,-0.5,-0.5,0.5,0
102,28,male,Polish,exp,6,28,exp,yes,447,mixed,j,803,win,0,574,0.8,20,0.2,30,HP-LP,f,1584,HP,win,16,6,HP,yes,0.9090909090909092,-0.5,0.5,1
102,28,male,Polish,exp,6,30,exp,no,267,mixed,f,341,loss,0,260,0.7,10,0.3,30,HP-LP,j,2651,LP,win,7,9,LP,yes,-0.25,0.5,-0.5,0
102,28,male,Polish,exp,6,32,exp,no,262,mixed,f,660,win,0,431,0.8,10,0.2,20,LP-HP,j,1617,HP,win,8,4,HP,yes,0.6666666666666666,-0.5,-0.5,1
102,28,male,Polish,exp,6,36,exp,yes,258,mixed,j,341,win,1,427,0.7,20,0.3,30,LP-HP,f,1430,LP,no-win,14,9,HP,no,0.43478260869565216,-0.5,0.5,0
102,28,male,Polish,exp,6,40,exp,yes,296,mixed,j,616,win,0,500,0.6,40,0.4,50,HP-LP,f,2850,HP,win,24,20,HP,yes,0.18181818181818185,-0.5,0.5,1
102,28,male,Polish,exp,6,44,exp,yes,276,mixed,j,483,loss,0,477,0.8,20,0.2,30,HP-LP,f,263,HP,win,16,6,HP,yes,0.9090909090909092,0.5,0.5,1
102,28,male,Polish,exp,6,50,exp,no,402,mixed,j,605,loss,0,380,0.7,10,0.3,50,LP-HP,j,2321,HP,win,7,15,LP,no,-0.7272727272727273,0.5,-0.5,1
102,28,male,Polish,exp,6,52,exp,yes,610,mixed,f,561,loss,0,462,0.8,10,0.2,20,LP-HP,j,1936,HP,win,8,4,HP,yes,0.6666666666666666,0.5,0.5,1
103,28,male,Portuguese,exp,3,2,exp,yes,814,mixed,j,1154,win,1,388,0.8,20,0.2,30,LP-HP,f,340,LP,no-win,16,6,HP,no,0.9090909090909092,-0.5,0.5,0
103,28,male,Portuguese,exp,3,8,exp,yes,398,mixed,f,750,loss,0,470,0.6,40,0.4,50,LP-HP,j,966,HP,no-win,24,20,HP,yes,0.18181818181818185,0.5,0.5,1
103,28,male,Portuguese,exp,3,10,exp,yes,365,mixed,j,1195,loss,0,398,0.6,20,0.4,50,HP-LP,f,1247,HP,no-win,12,20,LP,no,-0.5,0.5,0.5,1
103,28,male,Portuguese,exp,3,14,exp,no,525,mixed,j,652,win,0,460,0.6,40,0.4,50,LP-HP,j,995,HP,win,24,20,HP,yes,0.18181818181818185,-0.5,-0.5,1
103,28,male,Portuguese,exp,3,16,exp,yes,336,mixed,j,889,loss,1,363,0.8,20,0.2,30,HP-LP,f,993,HP,no-win,16,6,HP,yes,0.9090909090909092,0.5,0.5,1
103,28,male,Portuguese,exp,3,18,exp,no,274,mixed,j,733,loss,0,68,0.6,10,0.4,40,LP-HP,j,940,HP,win,6,16,LP,no,-0.9090909090909092,0.5,-0.5,1
103,28,male,Portuguese,exp,3,20,exp,no,421,mixed,j,824,win,0,464,0.6,20,0.4,50,HP-LP,j,2588,LP,win,12,20,LP,yes,-0.5,-0.5,-0.5,0
103,28,male,Portuguese,exp,3,24,exp,no,450,mixed,j,720,loss,0,438,0.6,40,0.4,50,HP-LP,f,942,HP,win,24,20,HP,yes,0.18181818181818185,0.5,-0.5,1
103,28,male,Portuguese,exp,3,26,exp,yes,538,mixed,f,970,win,0,974,0.7,30,0.3,40,LP-HP,j,820,HP,win,21,12,HP,yes,0.5454545454545454,-0.5,0.5,1
103,28,male,Portuguese,exp,3,28,exp,no,802,mixed,f,628,win,0,460,0.6,10,0.4,40,LP-HP,j,794,HP,no-win,6,16,LP,no,-0.9090909090909092,-0.5,-0.5,1
103,28,male,Portuguese,exp,3,30,exp,no,547,mixed,j,631,win,0,362,0.6,30,0.4,50,HP-LP,f,1046,HP,no-win,18,20,LP,no,-0.10526315789473684,-0.5,-0.5,1
103,28,male,Portuguese,exp,3,32,exp,yes,335,mixed,f,926,win,0,386,0.7,20,0.3,30,HP-LP,f,1065,HP,win,14,9,HP,yes,0.43478260869565216,-0.5,0.5,1
103,28,male,Portuguese,exp,3,34,exp,yes,323,mixed,j,794,win,1,814,0.6,30,0.4,50,LP-HP,j,1034,HP,win,18,20,LP,no,-0.10526315789473684,-0.5,0.5,1
103,28,male,Portuguese,exp,3,36,exp,yes,498,mixed,j,1347,win,0,385,0.6,20,0.4,50,LP-HP,j,1051,HP,win,12,20,LP,no,-0.5,-0.5,0.5,1
103,28,male,Portuguese,exp,3,38,exp,no,539,mixed,f,865,loss,0,490,0.7,10,0.3,30,HP-LP,f,744,HP,win,7,9,LP,no,-0.25,0.5,-0.5,1
103,28,male,Portuguese,exp,3,44,exp,no,427,mixed,f,357,win,0,410,0.7,20,0.3,30,HP-LP,f,1001,HP,win,14,9,HP,yes,0.43478260869565216,-0.5,-0.5,1
103,28,male,Portuguese,exp,3,46,exp,yes,339,mixed,j,266,loss,0,576,0.7,30,0.3,40,LP-HP,j,670,HP,win,21,12,HP,yes,0.5454545454545454,0.5,0.5,1
103,28,male,Portuguese,exp,3,48,exp,no,361,mixed,j,906,win,0,122,0.6,20,0.4,50,LP-HP,j,745,HP,win,12,20,LP,no,-0.5,-0.5,-0.5,1
103,28,male,Portuguese,exp,3,50,exp,no,548,mixed,j,227,loss,0,455,0.6,30,0.4,50,HP-LP,f,816,HP,no-win,18,20,LP,no,-0.10526315789473684,0.5,-0.5,1
103,28,male,Portuguese,exp,3,52,exp,yes,424,mixed,f,415,loss,1,394,0.7,10,0.3,30,LP-HP,j,592,HP,no-win,7,9,LP,no,-0.25,0.5,0.5,1
103,28,male,Portuguese,exp,4,2,exp,no,715,mixed,j,747,loss,0,645,0.7,10,0.3,50,LP-HP,j,1115,HP,win,7,15,LP,no,-0.7272727272727273,0.5,-0.5,1
103,28,male,Portuguese,exp,4,6,exp,yes,433,mixed,j,244,loss,1,374,0.8,10,0.2,20,HP-LP,f,656,HP,no-win,8,4,HP,yes,0.6666666666666666,0.5,0.5,1
103,28,male,Portuguese,exp,4,8,exp,no,442,mixed,j,754,win,0,78,0.8,20,0.2,30,LP-HP,j,659,HP,win,16,6,HP,yes,0.9090909090909092,-0.5,-0.5,1
103,28,male,Portuguese,exp,4,10,exp,yes,270,mixed,j,146,win,1,403,0.8,10,0.2,20,LP-HP,j,689,HP,win,8,4,HP,yes,0.6666666666666666,-0.5,0.5,1
103,28,male,Portuguese,exp,4,12,exp,yes,482,mixed,j,531,loss,0,556,0.6,40,0.4,50,HP-LP,f,878,HP,no-win,24,20,HP,yes,0.18181818181818185,0.5,0.5,1
103,28,male,Portuguese,exp,4,14,exp,no,392,mixed,j,536,win,0,491,0.8,20,0.2,30,HP-LP,f,678,HP,win,16,6,HP,yes,0.9090909090909092,-0.5,-0.5,1
103,28,male,Portuguese,exp,4,18,exp,yes,335,mixed,j,530,win,0,522,0.6,30,0.4,50,HP-LP,f,814,HP,no-win,18,20,LP,no,-0.10526315789473684,-0.5,0.5,1
103,28,male,Portuguese,exp,4,20,exp,no,407,mixed,j,516,loss,0,327,0.8,10,0.2,20,HP-LP,f,550,HP,win,8,4,HP,yes,0.6666666666666666,0.5,-0.5,1
103,28,male,Portuguese,exp,4,22,exp,no,647,mixed,j,951,win,0,542,0.6,30,0.4,50,LP-HP,j,2003,HP,win,18,20,LP,no,-0.10526315789473684,-0.5,-0.5,1
103,28,male,Portuguese,exp,4,24,exp,no,340,mixed,j,466,loss,0,356,0.6,30,0.4,50,LP-HP,j,746,HP,no-win,18,20,LP,no,-0.10526315789473684,0.5,-0.5,1
103,28,male,Portuguese,exp,4,26,exp,yes,277,mixed,j,528,win,1,341,0.7,10,0.3,30,HP-LP,f,614,HP,win,7,9,LP,no,-0.25,-0.5,0.5,1
103,28,male,Portuguese,exp,4,28,exp,no,349,mixed,j,246,loss,0,519,0.7,20,0.3,30,HP-LP,f,572,HP,win,14,9,HP,yes,0.43478260869565216,0.5,-0.5,1
103,28,male,Portuguese,exp,4,30,exp,yes,292,mixed,j,182,win,1,289,0.6,40,0.4,50,LP-HP,j,674,HP,win,24,20,HP,yes,0.18181818181818185,-0.5,0.5,1
103,28,male,Portuguese,exp,4,32,exp,yes,735,mixed,j,584,win,1,495,0.8,10,0.2,20,HP-LP,f,576,HP,win,8,4,HP,yes,0.6666666666666666,-0.5,0.5,1
103,28,male,Portuguese,exp,4,34,exp,no,650,mixed,j,535,loss,0,422,0.7,30,0.3,40,LP-HP,j,607,HP,win,21,12,HP,yes,0.5454545454545454,0.5,-0.5,1
103,28,male,Portuguese,exp,4,36,exp,no,328,mixed,j,382,win,0,53,0.7,10,0.3,30,LP-HP,j,558,HP,win,7,9,LP,no,-0.25,-0.5,-0.5,1
103,28,male,Portuguese,exp,4,40,exp,yes,283,mixed,j,327,win,0,312,0.6,10,0.4,40,HP-LP,f,670,HP,no-win,6,16,LP,no,-0.9090909090909092,-0.5,0.5,1
103,28,male,Portuguese,exp,4,46,exp,yes,250,mixed,j,373,loss,0,747,0.7,30,0.3,40,HP-LP,f,867,HP,no-win,21,12,HP,yes,0.5454545454545454,0.5,0.5,1
103,28,male,Portuguese,exp,4,50,exp,yes,376,mixed,j,986,loss,1,402,0.7,20,0.3,30,HP-LP,f,610,HP,win,14,9,HP,yes,0.43478260869565216,0.5,0.5,1
103,28,male,Portuguese,exp,4,52,exp,no,619,mixed,j,511,win,0,288,0.7,10,0.3,30,HP-LP,f,658,HP,win,7,9,LP,no,-0.25,-0.5,-0.5,1
103,28,male,Portuguese,exp,5,2,exp,yes,1022,mixed,j,771,win,2,709,0.6,20,0.4,50,HP-LP,f,1023,HP,win,12,20,LP,no,-0.5,-0.5,0.5,1
103,28,male,Portuguese,exp,5,4,exp,no,375,mixed,j,567,loss,1,483,0.6,10,0.4,40,HP-LP,f,768,HP,no-win,6,16,LP,no,-0.9090909090909092,0.5,-0.5,1
103,28,male,Portuguese,exp,5,8,exp,yes,354,mixed,j,554,loss,0,358,0.6,10,0.4,40,HP-LP,f,624,HP,win,6,16,LP,no,-0.9090909090909092,0.5,0.5,1
103,28,male,Portuguese,exp,5,10,exp,no,40,mixed,j,482,loss,0,46,0.8,10,0.2,20,LP-HP,j,635,HP,win,8,4,HP,yes,0.6666666666666666,0.5,-0.5,1
103,28,male,Portuguese,exp,5,12,exp,yes,314,mixed,j,476,loss,1,128,0.7,10,0.3,50,LP-HP,j,592,HP,no-win,7,15,LP,no,-0.7272727272727273,0.5,0.5,1
103,28,male,Portuguese,exp,5,16,exp,no,363,mixed,j,562,loss,1,488,0.6,20,0.4,50,LP-HP,j,767,HP,win,12,20,LP,no,-0.5,0.5,-0.5,1
103,28,male,Portuguese,exp,5,18,exp,no,299,mixed,j,507,loss,0,18,0.7,10,0.3,50,HP-LP,f,830,HP,no-win,7,15,LP,no,-0.7272727272727273,0.5,-0.5,1
103,28,male,Portuguese,exp,5,20,exp,yes,269,mixed,j,585,win,1,876,0.6,40,0.4,50,HP-LP,f,641,HP,no-win,24,20,HP,yes,0.18181818181818185,-0.5,0.5,1
103,28,male,Portuguese,exp,5,22,exp,no,318,mixed,j,340,win,0,15,0.8,10,0.2,20,HP-LP,f,489,HP,win,8,4,HP,yes,0.6666666666666666,-0.5,-0.5,1
103,28,male,Portuguese,exp,5,24,exp,yes,252,mixed,j,369,loss,0,577,0.7,10,0.3,50,HP-LP,f,617,HP,win,7,15,LP,no,-0.7272727272727273,0.5,0.5,1
103,28,male,Portuguese,exp,5,28,exp,yes,348,mixed,j,397,loss,1,396,0.6,20,0.4,50,LP-HP,j,783,HP,no-win,12,20,LP,no,-0.5,0.5,0.5,1
103,28,male,Portuguese,exp,5,30,exp,yes,328,mixed,j,509,loss,2,376,0.6,30,0.4,50,HP-LP,f,753,HP,no-win,18,20,LP,no,-0.10526315789473684,0.5,0.5,1
103,28,male,Portuguese,exp,5,32,exp,no,483,mixed,j,1225,win,0,291,0.7,30,0.3,40,HP-LP,f,662,HP,win,21,12,HP,yes,0.5454545454545454,-0.5,-0.5,1
103,28,male,Portuguese,exp,5,34,exp,no,548,mixed,j,4314,loss,0,1885,0.8,20,0.2,30,HP-LP,f,554,HP,win,16,6,HP,yes,0.9090909090909092,0.5,-0.5,1
103,28,male,Portuguese,exp,5,40,exp,no,394,mixed,j,426,win,0,457,0.7,10,0.3,50,HP-LP,f,674,HP,win,7,15,LP,no,-0.7272727272727273,-0.5,-0.5,1
103,28,male,Portuguese,exp,5,42,exp,yes,382,mixed,j,455,win,1,788,0.8,20,0.2,30,HP-LP,f,594,HP,win,16,6,HP,yes,0.9090909090909092,-0.5,0.5,1
103,28,male,Portuguese,exp,5,44,exp,no,416,mixed,j,471,loss,0,412,0.7,30,0.3,40,HP-LP,f,862,HP,win,21,12,HP,yes,0.5454545454545454,0.5,-0.5,1
103,28,male,Portuguese,exp,5,48,exp,yes,296,mixed,j,551,loss,1,340,0.6,10,0.4,40,LP-HP,j,768,HP,win,6,16,LP,no,-0.9090909090909092,0.5,0.5,1
103,28,male,Portuguese,exp,5,50,exp,no,304,mixed,j,446,loss,0,1183,0.8,20,0.2,30,LP-HP,j,5011,HP,no-win,16,6,HP,yes,0.9090909090909092,0.5,-0.5,1
103,28,male,Portuguese,exp,5,52,exp,no,986,mixed,j,667,loss,0,1720,0.7,10,0.3,30,LP-HP,j,738,HP,no-win,7,9,LP,no,-0.25,0.5,-0.5,1
103,28,male,Portuguese,exp,6,2,exp,no,675,mixed,j,450,win,0,1825,0.6,40,0.4,50,HP-LP,f,642,HP,win,24,20,HP,yes,0.18181818181818185,-0.5,-0.5,1
103,28,male,Portuguese,exp,6,8,exp,yes,626,mixed,j,487,win,0,670,0.7,30,0.3,40,HP-LP,f,613,HP,win,21,12,HP,yes,0.5454545454545454,-0.5,0.5,1
103,28,male,Portuguese,exp,6,10,exp,no,3337,mixed,j,511,win,0,1740,0.8,10,0.2,20,LP-HP,j,704,HP,win,8,4,HP,yes,0.6666666666666666,-0.5,-0.5,1
103,28,male,Portuguese,exp,6,12,exp,yes,2821,mixed,j,456,loss,0,3287,0.7,10,0.3,30,HP-LP,f,591,HP,win,7,9,LP,no,-0.25,0.5,0.5,1
103,28,male,Portuguese,exp,6,14,exp,yes,2478,mixed,j,428,win,0,2297,0.6,10,0.4,40,LP-HP,j,599,HP,win,6,16,LP,no,-0.9090909090909092,-0.5,0.5,1
103,28,male,Portuguese,exp,6,16,exp,yes,430,mixed,j,591,loss,1,25,0.8,20,0.2,30,LP-HP,j,598,HP,win,16,6,HP,yes,0.9090909090909092,0.5,0.5,1
103,28,male,Portuguese,exp,6,20,exp,yes,1153,mixed,j,493,loss,1,533,0.8,10,0.2,20,LP-HP,j,551,HP,win,8,4,HP,yes,0.6666666666666666,0.5,0.5,1
103,28,male,Portuguese,exp,6,24,exp,no,444,mixed,j,433,win,1,331,0.6,10,0.4,40,HP-LP,j,256,LP,no-win,6,16,LP,yes,-0.9090909090909092,-0.5,-0.5,0
103,28,male,Portuguese,exp,6,26,exp,yes,307,mixed,j,644,win,1,480,0.7,20,0.3,30,LP-HP,j,572,HP,no-win,14,9,HP,yes,0.43478260869565216,-0.5,0.5,1
103,28,male,Portuguese,exp,6,28,exp,no,392,mixed,j,487,win,0,294,0.7,10,0.3,50,LP-HP,j,1053,HP,no-win,7,15,LP,no,-0.7272727272727273,-0.5,-0.5,1
103,28,male,Portuguese,exp,6,30,exp,no,320,mixed,j,567,win,0,375,0.7,30,0.3,40,LP-HP,j,285,HP,no-win,21,12,HP,yes,0.5454545454545454,-0.5,-0.5,1
103,28,male,Portuguese,exp,6,34,exp,yes,303,mixed,j,409,win,1,474,0.7,10,0.3,50,LP-HP,j,1014,HP,win,7,15,LP,no,-0.7272727272727273,-0.5,0.5,1
103,28,male,Portuguese,exp,6,36,exp,no,443,mixed,j,472,loss,0,383,0.7,20,0.3,30,LP-HP,j,824,HP,win,14,9,HP,yes,0.43478260869565216,0.5,-0.5,1
103,28,male,Portuguese,exp,6,38,exp,no,431,mixed,j,398,win,0,60,0.7,20,0.3,30,LP-HP,j,653,HP,win,14,9,HP,yes,0.43478260869565216,-0.5,-0.5,1
103,28,male,Portuguese,exp,6,40,exp,no,316,mixed,j,374,loss,0,203,0.6,20,0.4,50,HP-LP,j,314,LP,win,12,20,LP,yes,-0.5,0.5,-0.5,0
103,28,male,Portuguese,exp,6,44,exp,yes,326,mixed,j,531,win,1,467,0.7,10,0.3,50,HP-LP,f,590,HP,win,7,15,LP,no,-0.7272727272727273,-0.5,0.5,1
103,28,male,Portuguese,exp,6,46,exp,yes,592,mixed,j,462,loss,0,447,0.7,20,0.3,30,LP-HP,j,590,HP,no-win,14,9,HP,yes,0.43478260869565216,0.5,0.5,1
103,28,male,Portuguese,exp,6,48,exp,no,391,mixed,j,556,loss,0,606,0.6,40,0.4,50,LP-HP,j,599,HP,win,24,20,HP,yes,0.18181818181818185,0.5,-0.5,1
103,28,male,Portuguese,exp,6,50,exp,yes,439,mixed,j,421,loss,1,421,0.6,30,0.4,50,LP-HP,j,360,HP,no-win,18,20,LP,no,-0.10526315789473684,0.5,0.5,1
103,28,male,Portuguese,exp,6,52,exp,yes,584,mixed,j,232,win,1,286,0.7,10,0.3,30,LP-HP,j,1075,HP,win,7,9,LP,no,-0.25,-0.5,0.5,1
104,37,male,French,exp,3,2,exp,yes,4102,mixed,j,3288,win,0,1380,0.8,10,0.2,20,HP-LP,f,2151,HP,no-win,8,4,HP,yes,0.6666666666666666,-0.5,0.5,1
104,37,male,French,exp,3,4,exp,no,1781,mixed,f,1439,win,0,1677,0.6,20,0.4,50,LP-HP,j,15888,HP,no-win,12,20,LP,no,-0.5,-0.5,-0.5,1
104,37,male,French,exp,3,8,exp,yes,1523,mixed,j,2119,win,0,1067,0.7,10,0.3,50,HP-LP,j,8647,LP,win,7,15,LP,yes,-0.7272727272727273,-0.5,0.5,0
104,37,male,French,exp,3,10,exp,yes,1597,mixed,f,1599,loss,0,1590,0.6,20,0.4,50,LP-HP,f,11527,LP,win,12,20,LP,yes,-0.5,0.5,0.5,0
104,37,male,French,exp,3,12,exp,yes,1250,mixed,j,1319,win,0,928,0.6,40,0.4,50,LP-HP,j,3327,HP,win,24,20,HP,yes,0.18181818181818185,-0.5,0.5,1
104,37,male,French,exp,3,14,exp,no,954,mixed,j,3119,loss,0,911,0.8,10,0.2,20,LP-HP,j,1984,HP,win,8,4,HP,yes,0.6666666666666666,0.5,-0.5,1
104,37,male,French,exp,3,16,exp,yes,1143,mixed,j,1424,win,0,734,0.8,10,0.2,20,LP-HP,j,1664,HP,no-win,8,4,HP,yes,0.6666666666666666,-0.5,0.5,1
104,37,male,French,exp,3,18,exp,yes,969,mixed,f,1287,win,0,931,0.7,20,0.3,30,LP-HP,j,1639,HP,no-win,14,9,HP,yes,0.43478260869565216,-0.5,0.5,1
104,37,male,French,exp,3,20,exp,no,903,mixed,f,1392,loss,0,1107,0.7,10,0.3,30,LP-HP,j,3071,HP,win,7,9,LP,no,-0.25,0.5,-0.5,1
104,37,male,French,exp,3,24,exp,yes,846,mixed,f,2367,loss,0,910,0.6,20,0.4,50,HP-LP,j,5663,LP,win,12,20,LP,yes,-0.5,0.5,0.5,0
104,37,male,French,exp,3,30,exp,yes,886,mixed,f,2087,loss,0,750,0.8,20,0.2,30,LP-HP,j,1887,HP,win,16,6,HP,yes,0.9090909090909092,0.5,0.5,1
104,37,male,French,exp,3,32,exp,no,795,mixed,f,1351,win,0,2378,0.8,10,0.2,20,HP-LP,f,1551,HP,win,8,4,HP,yes,0.6666666666666666,-0.5,-0.5,1
104,37,male,French,exp,3,36,exp,no,1029,mixed,j,1568,loss,0,714,0.7,30,0.3,40,LP-HP,j,1631,HP,no-win,21,12,HP,yes,0.5454545454545454,0.5,-0.5,1
104,37,male,French,exp,3,38,exp,yes,882,mixed,j,1127,win,0,772,0.6,10,0.4,40,HP-LP,j,3655,LP,no-win,6,16,LP,yes,-0.9090909090909092,-0.5,0.5,0
104,37,male,French,exp,3,40,exp,no,819,mixed,f,1264,loss,0,704,0.6,40,0.4,50,HP-LP,f,4712,HP,no-win,24,20,HP,yes,0.18181818181818185,0.5,-0.5,1
104,37,male,French,exp,3,42,exp,no,702,mixed,f,911,loss,0,684,0.6,10,0.4,40,LP-HP,f,2799,LP,no-win,6,16,LP,yes,-0.9090909090909092,0.5,-0.5,0
104,37,male,French,exp,3,44,exp,no,714,mixed,f,1071,win,0,708,0.6,30,0.4,50,HP-LP,f,8679,HP,win,18,20,LP,no,-0.10526315789473684,-0.5,-0.5,1
104,37,male,French,exp,3,46,exp,no,1135,mixed,f,1423,win,0,636,0.8,20,0.2,30,HP-LP,f,1632,HP,win,16,6,HP,yes,0.9090909090909092,-0.5,-0.5,1
104,37,male,French,exp,3,48,exp,no,780,mixed,j,1351,win,0,692,0.7,30,0.3,40,HP-LP,f,2144,HP,win,21,12,HP,yes,0.5454545454545454,-0.5,-0.5,1
104,37,male,French,exp,3,52,exp,no,670,mixed,f,1455,win,0,1091,0.6,30,0.4,50,LP-HP,j,6816,HP,no-win,18,20,LP,no,-0.10526315789473684,-0.5,-0.5,1
104,37,male,French,exp,4,2,exp,no,2550,mixed,j,2335,win,0,508,0.7,10,0.3,50,HP-LP,f,3375,HP,win,7,15,LP,no,-0.7272727272727273,-0.5,-0.5,1
104,37,male,French,exp,4,4,exp,yes,900,mixed,f,1527,win,0,642,0.6,40,0.4,50,HP-LP,f,2735,HP,no-win,24,20,HP,yes,0.18181818181818185,-0.5,0.5,1
104,37,male,French,exp,4,6,exp,yes,653,mixed,f,1239,loss,0,630,0.7,10,0.3,30,LP-HP,j,3191,HP,no-win,7,9,LP,no,-0.25,0.5,0.5,1
104,37,male,French,exp,4,8,exp,no,702,mixed,f,1191,win,0,644,0.6,40,0.4,50,LP-HP,j,2631,HP,win,24,20,HP,yes,0.18181818181818185,-0.5,-0.5,1
104,37,male,French,exp,4,10,exp,no,734,mixed,j,967,loss,0,558,0.7,30,0.3,40,HP-LP,f,2039,HP,win,21,12,HP,yes,0.5454545454545454,0.5,-0.5,1
104,37,male,French,exp,4,16,exp,no,545,mixed,j,943,win,0,574,0.7,10,0.3,50,LP-HP,j,2600,HP,win,7,15,LP,no,-0.7272727272727273,-0.5,-0.5,1
104,37,male,French,exp,4,26,exp,no,754,mixed,f,1975,loss,0,570,0.7,10,0.3,50,HP-LP,f,4415,HP,win,7,15,LP,no,-0.7272727272727273,0.5,-0.5,1
104,37,male,French,exp,4,28,exp,no,779,mixed,f,2871,win,0,547,0.6,40,0.4,50,HP-LP,f,1807,HP,win,24,20,HP,yes,0.18181818181818185,-0.5,-0.5,1
104,37,male,French,exp,4,30,exp,no,658,mixed,j,1375,win,0,555,0.6,10,0.4,40,LP-HP,f,4239,LP,no-win,6,16,LP,yes,-0.9090909090909092,-0.5,-0.5,0
104,37,male,French,exp,4,32,exp,yes,769,mixed,j,1463,win,0,808,0.7,10,0.3,30,HP-LP,f,2904,HP,win,7,9,LP,no,-0.25,-0.5,0.5,1
104,37,male,French,exp,4,34,exp,no,741,mixed,j,1199,win,0,626,0.7,20,0.3,30,LP-HP,j,1455,HP,no-win,14,9,HP,yes,0.43478260869565216,-0.5,-0.5,1
104,37,male,French,exp,4,36,exp,no,636,mixed,j,1263,loss,0,617,0.6,20,0.4,50,LP-HP,f,3591,LP,win,12,20,LP,yes,-0.5,0.5,-0.5,0
104,37,male,French,exp,4,38,exp,yes,821,mixed,j,1551,win,0,594,0.6,30,0.4,50,LP-HP,f,7423,LP,no-win,18,20,LP,yes,-0.10526315789473684,-0.5,0.5,0
104,37,male,French,exp,4,40,exp,no,641,mixed,f,1343,loss,0,567,0.8,20,0.2,30,LP-HP,j,1383,HP,win,16,6,HP,yes,0.9090909090909092,0.5,-0.5,1
104,37,male,French,exp,4,42,exp,yes,679,mixed,f,1119,loss,0,542,0.6,10,0.4,40,HP-LP,j,2351,LP,win,6,16,LP,yes,-0.9090909090909092,0.5,0.5,0
104,37,male,French,exp,4,44,exp,no,642,mixed,f,1335,loss,0,517,0.7,20,0.3,30,HP-LP,f,1599,HP,win,14,9,HP,yes,0.43478260869565216,0.5,-0.5,1
104,37,male,French,exp,4,46,exp,yes,596,mixed,f,1623,win,0,697,0.7,10,0.3,50,LP-HP,j,2912,HP,win,7,15,LP,no,-0.7272727272727273,-0.5,0.5,1
104,37,male,French,exp,4,48,exp,yes,591,mixed,j,2479,loss,0,532,0.8,10,0.2,20,LP-HP,j,1591,HP,win,8,4,HP,yes,0.6666666666666666,0.5,0.5,1
104,37,male,French,exp,4,50,exp,yes,891,mixed,j,1295,loss,0,684,0.6,30,0.4,50,HP-LP,j,5735,LP,no-win,18,20,LP,yes,-0.10526315789473684,0.5,0.5,0
104,37,male,French,exp,4,52,exp,no,560,mixed,f,2687,loss,0,1066,0.6,30,0.4,50,HP-LP,f,1959,HP,win,18,20,LP,no,-0.10526315789473684,0.5,-0.5,1
104,37,male,French,exp,5,4,exp,no,584,mixed,f,1175,loss,0,503,0.8,10,0.2,20,HP-LP,f,1544,HP,win,8,4,HP,yes,0.6666666666666666,0.5,-0.5,1
104,37,male,French,exp,5,6,exp,yes,603,mixed,f,919,win,0,540,0.6,20,0.4,50,HP-LP,j,1807,LP,win,12,20,LP,yes,-0.5,-0.5,0.5,0
104,37,male,French,exp,5,8,exp,no,579,mixed,f,3199,win,0,537,0.8,20,0.2,30,LP-HP,j,1567,HP,win,16,6,HP,yes,0.9090909090909092,-0.5,-0.5,1
104,37,male,French,exp,5,12,exp,yes,496,mixed,j,880,loss,0,506,0.7,10,0.3,50,HP-LP,f,1871,HP,win,7,15,LP,no,-0.7272727272727273,0.5,0.5,1
104,37,male,French,exp,5,14,exp,yes,512,mixed,j,984,win,0,557,0.7,20,0.3,30,HP-LP,f,1431,HP,win,14,9,HP,yes,0.43478260869565216,-0.5,0.5,1
104,37,male,French,exp,5,16,exp,yes,500,mixed,j,816,loss,0,517,0.7,20,0.3,30,LP-HP,j,1311,HP,win,14,9,HP,yes,0.43478260869565216,0.5,0.5,1
104,37,male,French,exp,5,18,exp,no,527,mixed,j,808,loss,0,539,0.6,30,0.4,50,LP-HP,f,3143,LP,win,18,20,LP,yes,-0.10526315789473684,0.5,-0.5,0
104,37,male,French,exp,5,20,exp,yes,559,mixed,f,1176,loss,0,546,0.6,40,0.4,50,LP-HP,j,2735,HP,win,24,20,HP,yes,0.18181818181818185,0.5,0.5,1
104,37,male,French,exp,5,22,exp,no,570,mixed,f,1175,loss,0,513,0.8,20,0.2,30,HP-LP,f,1391,HP,win,16,6,HP,yes,0.9090909090909092,0.5,-0.5,1
104,37,male,French,exp,5,26,exp,yes,541,mixed,j,863,loss,0,500,0.6,40,0.4,50,HP-LP,f,1959,HP,win,24,20,HP,yes,0.18181818181818185,0.5,0.5,1
104,37,male,French,exp,5,28,exp,no,586,mixed,f,1280,win,0,552,0.7,20,0.3,30,HP-LP,f,1583,HP,win,14,9,HP,yes,0.43478260869565216,-0.5,-0.5,1
104,37,male,French,exp,5,30,exp,no,551,mixed,f,1224,win,0,519,0.7,10,0.3,30,HP-LP,f,2232,HP,win,7,9,LP,no,-0.25,-0.5,-0.5,1
104,37,male,French,exp,5,32,exp,no,627,mixed,f,951,win,0,546,0.7,10,0.3,30,LP-HP,j,1896,HP,win,7,9,LP,no,-0.25,-0.5,-0.5,1
104,37,male,French,exp,5,34,exp,yes,651,mixed,j,839,win,0,657,0.7,30,0.3,40,LP-HP,j,1735,HP,win,21,12,HP,yes,0.5454545454545454,-0.5,0.5,1
104,37,male,French,exp,5,36,exp,yes,581,mixed,f,1383,loss,0,691,0.7,10,0.3,30,HP-LP,f,1359,HP,win,7,9,LP,no,-0.25,0.5,0.5,1
104,37,male,French,exp,5,42,exp,yes,569,mixed,f,632,loss,0,577,0.7,20,0.3,30,HP-LP,f,2032,HP,no-win,14,9,HP,yes,0.43478260869565216,0.5,0.5,1
104,37,male,French,exp,5,44,exp,no,646,mixed,f,463,win,0,602,0.7,30,0.3,40,LP-HP,j,1815,HP,win,21,12,HP,yes,0.5454545454545454,-0.5,-0.5,1
104,37,male,French,exp,5,48,exp,yes,637,mixed,f,527,win,0,588,0.7,10,0.3,30,LP-HP,j,1647,HP,no-win,7,9,LP,no,-0.25,-0.5,0.5,1
104,37,male,French,exp,5,50,exp,yes,559,mixed,f,2431,loss,0,801,0.8,20,0.2,30,HP-LP,f,1111,HP,win,16,6,HP,yes,0.9090909090909092,0.5,0.5,1
104,37,male,French,exp,5,52,exp,yes,606,mixed,f,912,loss,0,991,0.7,30,0.3,40,LP-HP,j,1191,HP,no-win,21,12,HP,yes,0.5454545454545454,0.5,0.5,1
104,37,male,French,exp,6,2,exp,no,27350,mixed,j,1591,win,0,679,0.8,10,0.2,20,LP-HP,f,1215,LP,no-win,8,4,HP,no,0.6666666666666666,-0.5,-0.5,0
104,37,male,French,exp,6,6,exp,yes,535,mixed,j,1103,loss,0,623,0.7,30,0.3,40,HP-LP,f,1039,HP,win,21,12,HP,yes,0.5454545454545454,0.5,0.5,1
104,37,male,French,exp,6,8,exp,yes,509,mixed,f,1071,win,0,585,0.8,20,0.2,30,HP-LP,f,1192,HP,no-win,16,6,HP,yes,0.9090909090909092,-0.5,0.5,1
104,37,male,French,exp,6,10,exp,yes,652,mixed,f,919,loss,0,506,0.8,10,0.2,20,HP-LP,f,1071,HP,win,8,4,HP,yes,0.6666666666666666,0.5,0.5,1
104,37,male,French,exp,6,16,exp,no,469,mixed,j,1015,loss,0,504,0.7,10,0.3,30,HP-LP,f,2519,HP,win,7,9,LP,no,-0.25,0.5,-0.5,1
104,37,male,French,exp,6,18,exp,yes,560,mixed,j,823,loss,0,464,0.6,10,0.4,40,LP-HP,f,1727,LP,no-win,6,16,LP,yes,-0.9090909090909092,0.5,0.5,0
104,37,male,French,exp,6,20,exp,no,516,mixed,j,711,loss,0,498,0.6,20,0.4,50,HP-LP,j,2352,LP,no-win,12,20,LP,yes,-0.5,0.5,-0.5,0
104,37,male,French,exp,6,22,exp,yes,463,mixed,j,759,win,0,486,0.8,20,0.2,30,LP-HP,j,1167,HP,no-win,16,6,HP,yes,0.9090909090909092,-0.5,0.5,1
104,37,male,French,exp,6,24,exp,no,622,mixed,j,1103,loss,0,531,0.7,10,0.3,50,LP-HP,j,2935,HP,win,7,15,LP,no,-0.7272727272727273,0.5,-0.5,1
104,37,male,French,exp,6,26,exp,yes,512,mixed,j,2751,win,0,506,0.7,30,0.3,40,HP-LP,f,1455,HP,win,21,12,HP,yes,0.5454545454545454,-0.5,0.5,1
104,37,male,French,exp,6,28,exp,no,554,mixed,f,903,loss,0,427,0.6,40,0.4,50,LP-HP,j,2767,HP,no-win,24,20,HP,yes,0.18181818181818185,0.5,-0.5,1
104,37,male,French,exp,6,30,exp,no,728,mixed,f,927,loss,0,511,0.7,20,0.3,30,LP-HP,j,1087,HP,win,14,9,HP,yes,0.43478260869565216,0.5,-0.5,1
104,37,male,French,exp,6,32,exp,yes,548,mixed,f,759,win,0,524,0.6,10,0.4,40,LP-HP,f,2968,LP,win,6,16,LP,yes,-0.9090909090909092,-0.5,0.5,0
104,37,male,French,exp,6,34,exp,yes,494,mixed,f,1503,loss,0,502,0.7,10,0.3,50,LP-HP,j,3400,HP,no-win,7,15,LP,no,-0.7272727272727273,0.5,0.5,1
104,37,male,French,exp,6,36,exp,no,511,mixed,j,903,win,0,505,0.6,10,0.4,40,HP-LP,j,2944,LP,win,6,16,LP,yes,-0.9090909090909092,-0.5,-0.5,0
104,37,male,French,exp,6,38,exp,no,971,mixed,f,968,win,0,414,0.6,20,0.4,50,HP-LP,j,3879,LP,no-win,12,20,LP,yes,-0.5,-0.5,-0.5,0
104,37,male,French,exp,6,40,exp,yes,544,mixed,f,1711,loss,0,461,0.6,30,0.4,50,LP-HP,f,2984,LP,no-win,18,20,LP,yes,-0.10526315789473684,0.5,0.5,0
104,37,male,French,exp,6,42,exp,yes,516,mixed,f,1231,win,0,537,0.6,20,0.4,50,LP-HP,f,2535,LP,no-win,12,20,LP,yes,-0.5,-0.5,0.5,0
104,37,male,French,exp,6,46,exp,yes,842,mixed,j,1007,win,0,572,0.6,30,0.4,50,HP-LP,f,3783,HP,win,18,20,LP,no,-0.10526315789473684,-0.5,0.5,1
104,37,male,French,exp,6,48,exp,no,692,mixed,f,968,loss,0,523,0.6,10,0.4,40,HP-LP,j,2112,LP,win,6,16,LP,yes,-0.9090909090909092,0.5,-0.5,0
105,21,male,South African,exp,3,2,exp,yes,1783,mixed,j,1319,win,0,825,0.6,20,0.4,50,HP-LP,j,2620,LP,win,12,20,LP,yes,-0.5,-0.5,0.5,0
105,21,male,South African,exp,3,4,exp,yes,1041,mixed,f,1222,win,0,986,0.7,10,0.3,50,HP-LP,f,1260,HP,win,7,15,LP,no,-0.7272727272727273,-0.5,0.5,1
105,21,male,South African,exp,3,6,exp,yes,1691,mixed,f,1378,loss,0,938,0.6,10,0.4,40,LP-HP,f,1374,LP,win,6,16,LP,yes,-0.9090909090909092,0.5,0.5,0
105,21,male,South African,exp,3,8,exp,no,1213,mixed,j,700,win,0,713,0.6,10,0.4,40,LP-HP,f,1479,LP,no-win,6,16,LP,yes,-0.9090909090909092,-0.5,-0.5,0
105,21,male,South African,exp,3,10,exp,no,1106,mixed,j,1137,loss,0,936,0.8,10,0.2,20,LP-HP,j,1684,HP,win,8,4,HP,yes,0.6666666666666666,0.5,-0.5,1
105,21,male,South African,exp,3,12,exp,no,1305,mixed,f,1396,win,0,1668,0.7,20,0.3,30,HP-LP,f,2267,HP,win,14,9,HP,yes,0.43478260869565216,-0.5,-0.5,1
105,21,male,South African,exp,3,16,exp,yes,1239,mixed,f,1137,win,0,1042,0.8,10,0.2,20,LP-HP,j,1002,HP,win,8,4,HP,yes,0.6666666666666666,-0.5,0.5,1
105,21,male,South African,exp,3,18,exp,no,3241,mixed,j,819,win,0,685,0.7,10,0.3,50,HP-LP,j,3057,LP,no-win,7,15,LP,yes,-0.7272727272727273,-0.5,-0.5,0
105,21,male,South African,exp,3,20,exp,yes,918,mixed,j,2040,win,0,1175,0.6,30,0.4,50,LP-HP,j,2235,HP,win,18,20,LP,no,-0.10526315789473684,-0.5,0.5,1
105,21,male,South African,exp,3,24,exp,no,1149,mixed,j,1067,loss,0,847,0.6,30,0.4,50,HP-LP,f,2143,HP,no-win,18,20,LP,no,-0.10526315789473684,0.5,-0.5,1
105,21,male,South African,exp,3,26,exp,yes,1082,mixed,f,2396,win,0,1008,0.8,20,0.2,30,HP-LP,f,1208,HP,no-win,16,6,HP,yes,0.9090909090909092,-0.5,0.5,1
105,21,male,South African,exp,3,28,exp,yes,1008,mixed,j,1337,win,0,1291,0.7,30,0.3,40,HP-LP,f,2720,HP,win,21,12,HP,yes,0.5454545454545454,-0.5,0.5,1
105,21,male,South African,exp,3,30,exp,no,1169,mixed,j,1370,win,0,800,0.7,20,0.3,30,LP-HP,j,1150,HP,win,14,9,HP,yes,0.43478260869565216,-0.5,-0.5,1
105,21,male,South African,exp,3,36,exp,no,926,mixed,f,1654,loss,0,1035,0.7,20,0.3,30,LP-HP,j,1796,HP,no-win,14,9,HP,yes,0.43478260869565216,0.5,-0.5,1
105,21,male,South African,exp,3,38,exp,yes,1252,mixed,f,561,loss,0,775,0.6,30,0.4,50,HP-LP,f,2324,HP,win,18,20,LP,no,-0.10526315789473684,0.5,0.5,1
105,21,male,South African,exp,3,40,exp,no,781,mixed,f,1055,win,0,980,0.6,40,0.4,50,LP-HP,j,1666,HP,win,24,20,HP,yes,0.18181818181818185,-0.5,-0.5,1
105,21,male,South African,exp,3,42,exp,yes,3585,mixed,j,641,loss,0,1195,0.8,20,0.2,30,LP-HP,j,2053,HP,win,16,6,HP,yes,0.9090909090909092,0.5,0.5,1
105,21,male,South African,exp,3,44,exp,yes,2599,mixed,j,582,loss,0,1726,0.7,30,0.3,40,HP-LP,f,1479,HP,win,21,12,HP,yes,0.5454545454545454,0.5,0.5,1
105,21,male,South African,exp,3,50,exp,yes,1262,mixed,j,631,win,0,1138,0.7,10,0.3,50,LP-HP,j,1537,HP,win,7,15,LP,no,-0.7272727272727273,-0.5,0.5,1
105,21,male,South African,exp,3,52,exp,no,743,mixed,f,993,win,0,909,0.6,20,0.4,50,HP-LP,f,2725,HP,no-win,12,20,LP,no,-0.5,-0.5,-0.5,1
105,21,male,South African,exp,4,2,exp,no,1794,mixed,j,851,loss,0,733,0.6,10,0.4,40,HP-LP,f,1426,HP,win,6,16,LP,no,-0.9090909090909092,0.5,-0.5,1
105,21,male,South African,exp,4,4,exp,yes,772,mixed,f,902,win,0,645,0.6,40,0.4,50,HP-LP,f,1543,HP,win,24,20,HP,yes,0.18181818181818185,-0.5,0.5,1
105,21,male,South African,exp,4,6,exp,no,1258,mixed,j,740,win,0,740,0.6,40,0.4,50,HP-LP,f,1587,HP,no-win,24,20,HP,yes,0.18181818181818185,-0.5,-0.5,1
105,21,male,South African,exp,4,8,exp,yes,545,mixed,f,880,win,0,967,0.7,30,0.3,40,LP-HP,j,1087,HP,win,21,12,HP,yes,0.5454545454545454,-0.5,0.5,1
105,21,male,South African,exp,4,10,exp,yes,899,mixed,j,1005,loss,0,694,0.8,10,0.2,20,LP-HP,j,1368,HP,win,8,4,HP,yes,0.6666666666666666,0.5,0.5,1
105,21,male,South African,exp,4,12,exp,yes,915,mixed,f,759,loss,0,997,0.7,10,0.3,50,LP-HP,j,1748,HP,win,7,15,LP,no,-0.7272727272727273,0.5,0.5,1
105,21,male,South African,exp,4,14,exp,no,765,mixed,j,822,win,0,615,0.6,10,0.4,40,HP-LP,j,2704,LP,no-win,6,16,LP,yes,-0.9090909090909092,-0.5,-0.5,0
105,21,male,South African,exp,4,16,exp,no,706,mixed,f,1447,loss,0,645,0.8,20,0.2,30,LP-HP,j,1207,HP,win,16,6,HP,yes,0.9090909090909092,0.5,-0.5,1
105,21,male,South African,exp,4,18,exp,no,628,mixed,j,1435,win,0,406,0.8,20,0.2,30,HP-LP,f,1098,HP,win,16,6,HP,yes,0.9090909090909092,-0.5,-0.5,1
105,21,male,South African,exp,4,20,exp,no,837,mixed,j,1259,win,0,516,0.8,10,0.2,20,LP-HP,j,967,HP,win,8,4,HP,yes,0.6666666666666666,-0.5,-0.5,1
105,21,male,South African,exp,4,24,exp,no,879,mixed,j,941,loss,0,490,0.7,10,0.3,30,LP-HP,j,1764,HP,win,7,9,LP,no,-0.25,0.5,-0.5,1
105,21,male,South African,exp,4,28,exp,no,736,mixed,j,753,loss,0,1074,0.6,40,0.4,50,HP-LP,f,2054,HP,win,24,20,HP,yes,0.18181818181818185,0.5,-0.5,1
105,21,male,South African,exp,4,30,exp,yes,3185,mixed,j,705,loss,0,1314,0.6,10,0.4,40,HP-LP,j,2773,LP,no-win,6,16,LP,yes,-0.9090909090909092,0.5,0.5,0
105,21,male,South African,exp,4,32,exp,no,695,mixed,j,687,loss,0,533,0.8,10,0.2,20,HP-LP,f,1353,HP,win,8,4,HP,yes,0.6666666666666666,0.5,-0.5,1
105,21,male,South African,exp,4,34,exp,yes,656,mixed,f,815,loss,0,517,0.7,20,0.3,30,LP-HP,j,1234,HP,win,14,9,HP,yes,0.43478260869565216,0.5,0.5,1
105,21,male,South African,exp,4,36,exp,yes,1870,mixed,f,765,loss,0,518,0.7,10,0.3,30,LP-HP,j,1685,HP,no-win,7,9,LP,no,-0.25,0.5,0.5,1
105,21,male,South African,exp,4,42,exp,yes,755,mixed,f,665,loss,0,907,0.7,10,0.3,30,HP-LP,f,1725,HP,win,7,9,LP,no,-0.25,0.5,0.5,1
105,21,male,South African,exp,4,44,exp,yes,788,mixed,f,1113,loss,0,361,0.7,10,0.3,50,HP-LP,f,1709,HP,win,7,15,LP,no,-0.7272727272727273,0.5,0.5,1
105,21,male,South African,exp,4,46,exp,yes,607,mixed,f,877,win,0,767,0.7,20,0.3,30,HP-LP,f,1905,HP,win,14,9,HP,yes,0.43478260869565216,-0.5,0.5,1
105,21,male,South African,exp,4,50,exp,no,1209,mixed,j,935,loss,0,511,0.8,20,0.2,30,HP-LP,f,1975,HP,win,16,6,HP,yes,0.9090909090909092,0.5,-0.5,1
105,21,male,South African,exp,5,2,exp,yes,1370,mixed,j,650,loss,0,1110,0.6,40,0.4,50,LP-HP,j,1223,HP,no-win,24,20,HP,yes,0.18181818181818185,0.5,0.5,1
105,21,male,South African,exp,5,4,exp,yes,676,mixed,j,616,win,0,781,0.7,20,0.3,30,LP-HP,j,1485,HP,win,14,9,HP,yes,0.43478260869565216,-0.5,0.5,1
105,21,male,South African,exp,5,6,exp,yes,677,mixed,f,1230,win,0,1152,0.6,10,0.4,40,HP-LP,j,1871,LP,no-win,6,16,LP,yes,-0.9090909090909092,-0.5,0.5,0
105,21,male,South African,exp,5,8,exp,no,606,mixed,f,1159,loss,0,551,0.6,20,0.4,50,HP-LP,f,3213,HP,win,12,20,LP,no,-0.5,0.5,-0.5,1
105,21,male,South African,exp,5,12,exp,yes,1023,mixed,j,720,win,0,457,0.6,20,0.4,50,LP-HP,f,2039,LP,no-win,12,20,LP,yes,-0.5,-0.5,0.5,0
105,21,male,South African,exp,5,16,exp,yes,2211,mixed,j,998,loss,0,945,0.8,10,0.2,20,HP-LP,f,1613,HP,no-win,8,4,HP,yes,0.6666666666666666,0.5,0.5,1
105,21,male,South African,exp,5,18,exp,no,930,mixed,j,625,win,0,593,0.7,10,0.3,30,LP-HP,j,1279,HP,win,7,9,LP,no,-0.25,-0.5,-0.5,1
105,21,male,South African,exp,5,20,exp,yes,987,mixed,f,806,loss,0,555,0.8,20,0.2,30,HP-LP,f,882,HP,win,16,6,HP,yes,0.9090909090909092,0.5,0.5,1
105,21,male,South African,exp,5,24,exp,yes,2113,mixed,j,559,win,0,314,0.8,10,0.2,20,HP-LP,f,1682,HP,win,8,4,HP,yes,0.6666666666666666,-0.5,0.5,1
105,21,male,South African,exp,5,26,exp,yes,665,mixed,j,677,win,0,476,0.8,20,0.2,30,LP-HP,j,1281,HP,no-win,16,6,HP,yes,0.9090909090909092,-0.5,0.5,1
105,21,male,South African,exp,5,28,exp,yes,590,mixed,f,1699,loss,0,604,0.6,20,0.4,50,HP-LP,j,2014,LP,no-win,12,20,LP,yes,-0.5,0.5,0.5,0
105,21,male,South African,exp,5,30,exp,yes,1227,mixed,j,554,win,0,2212,0.6,40,0.4,50,LP-HP,j,2576,HP,win,24,20,HP,yes,0.18181818181818185,-0.5,0.5,1
105,21,male,South African,exp,5,34,exp,yes,684,mixed,j,786,loss,0,545,0.6,20,0.4,50,LP-HP,f,1611,LP,no-win,12,20,LP,yes,-0.5,0.5,0.5,0
105,21,male,South African,exp,5,36,exp,no,546,mixed,j,814,loss,0,552,0.6,30,0.4,50,LP-HP,f,2775,LP,no-win,18,20,LP,yes,-0.10526315789473684,0.5,-0.5,0
105,21,male,South African,exp,5,38,exp,yes,326,mixed,f,560,win,0,787,0.7,10,0.3,30,LP-HP,j,2103,HP,no-win,7,9,LP,no,-0.25,-0.5,0.5,1
105,21,male,South African,exp,5,42,exp,yes,940,mixed,f,1030,loss,0,450,0.6,30,0.4,50,LP-HP,j,1268,HP,win,18,20,LP,no,-0.10526315789473684,0.5,0.5,1
105,21,male,South African,exp,5,44,exp,no,526,mixed,j,630,win,0,319,0.7,10,0.3,30,HP-LP,f,1926,HP,win,7,9,LP,no,-0.25,-0.5,-0.5,1
105,21,male,South African,exp,5,46,exp,yes,313,mixed,f,708,win,0,778,0.7,10,0.3,30,HP-LP,f,1291,HP,no-win,7,9,LP,no,-0.25,-0.5,0.5,1
105,21,male,South African,exp,5,50,exp,no,408,mixed,f,618,loss,0,602,0.7,30,0.3,40,HP-LP,f,941,HP,no-win,21,12,HP,yes,0.5454545454545454,0.5,-0.5,1
105,21,male,South African,exp,5,52,exp,no,756,mixed,j,1064,loss,0,335,0.6,10,0.4,40,LP-HP,f,1581,LP,no-win,6,16,LP,yes,-0.9090909090909092,0.5,-0.5,0
105,21,male,South African,exp,6,4,exp,no,1202,mixed,j,675,loss,0,820,0.7,20,0.3,30,HP-LP,f,1494,HP,no-win,14,9,HP,yes,0.43478260869565216,0.5,-0.5,1
105,21,male,South African,exp,6,6,exp,yes,628,mixed,f,591,loss,0,1031,0.7,30,0.3,40,LP-HP,j,1213,HP,no-win,21,12,HP,yes,0.5454545454545454,0.5,0.5,1
105,21,male,South African,exp,6,8,exp,no,347,mixed,j,595,win,0,790,0.7,30,0.3,40,HP-LP,f,1374,HP,win,21,12,HP,yes,0.5454545454545454,-0.5,-0.5,1
105,21,male,South African,exp,6,10,exp,no,1159,mixed,f,855,loss,0,561,0.7,30,0.3,40,LP-HP,j,721,HP,win,21,12,HP,yes,0.5454545454545454,0.5,-0.5,1
105,21,male,South African,exp,6,12,exp,no,557,mixed,j,546,win,0,653,0.7,10,0.3,50,LP-HP,f,2302,LP,win,7,15,LP,yes,-0.7272727272727273,-0.5,-0.5,0
105,21,male,South African,exp,6,14,exp,no,791,mixed,f,894,loss,0,902,0.6,20,0.4,50,LP-HP,f,1510,LP,no-win,12,20,LP,yes,-0.5,0.5,-0.5,0
105,21,male,South African,exp,6,16,exp,yes,808,mixed,j,604,win,0,863,0.6,10,0.4,40,LP-HP,f,3626,LP,win,6,16,LP,yes,-0.9090909090909092,-0.5,0.5,0
105,21,male,South African,exp,6,18,exp,yes,790,mixed,f,668,loss,0,630,0.7,20,0.3,30,HP-LP,f,1047,HP,no-win,14,9,HP,yes,0.43478260869565216,0.5,0.5,1
105,21,male,South African,exp,6,20,exp,no,522,mixed,j,1558,win,0,930,0.6,30,0.4,50,LP-HP,j,1544,HP,win,18,20,LP,no,-0.10526315789473684,-0.5,-0.5,1
105,21,male,South African,exp,6,22,exp,no,749,mixed,j,560,loss,0,611,0.6,40,0.4,50,LP-HP,j,1381,HP,win,24,20,HP,yes,0.18181818181818185,0.5,-0.5,1
105,21,male,South African,exp,6,24,exp,no,3963,mixed,f,765,loss,0,687,0.7,10,0.3,30,HP-LP,f,1025,HP,no-win,7,9,LP,no,-0.25,0.5,-0.5,1
105,21,male,South African,exp,6,30,exp,no,856,mixed,j,550,win,0,875,0.7,30,0.3,40,LP-HP,j,891,HP,no-win,21,12,HP,yes,0.5454545454545454,-0.5,-0.5,1
105,21,male,South African,exp,6,32,exp,no,693,mixed,f,641,win,0,434,0.8,10,0.2,20,HP-LP,f,1073,HP,win,8,4,HP,yes,0.6666666666666666,-0.5,-0.5,1
105,21,male,South African,exp,6,36,exp,no,667,mixed,j,1270,loss,0,682,0.7,10,0.3,50,HP-LP,j,1374,LP,no-win,7,15,LP,yes,-0.7272727272727273,0.5,-0.5,0
105,21,male,South African,exp,6,40,exp,no,690,mixed,f,653,win,0,2824,0.6,30,0.4,50,HP-LP,f,2109,HP,no-win,18,20,LP,no,-0.10526315789473684,-0.5,-0.5,1
105,21,male,South African,exp,6,42,exp,no,486,mixed,f,552,loss,0,893,0.7,10,0.3,50,LP-HP,f,1325,LP,win,7,15,LP,yes,-0.7272727272727273,0.5,-0.5,0
105,21,male,South African,exp,6,44,exp,yes,1114,mixed,j,823,win,0,1685,0.6,30,0.4,50,HP-LP,f,2090,HP,no-win,18,20,LP,no,-0.10526315789473684,-0.5,0.5,1
105,21,male,South African,exp,6,48,exp,no,2722,mixed,f,847,win,0,2685,0.6,20,0.4,50,LP-HP,f,2290,LP,no-win,12,20,LP,yes,-0.5,-0.5,-0.5,0
105,21,male,South African,exp,6,50,exp,yes,409,mixed,f,422,loss,0,725,0.6,40,0.4,50,HP-LP,f,1319,HP,win,24,20,HP,yes,0.18181818181818185,0.5,0.5,1
105,21,male,South African,exp,6,52,exp,no,1282,mixed,f,496,win,0,1563,0.8,20,0.2,30,LP-HP,j,805,HP,win,16,6,HP,yes,0.9090909090909092,-0.5,-0.5,1
107,24,female,Spanish,exp,3,2,exp,yes,1694,mixed,j,963,win,0,3595,0.7,10,0.3,50,LP-HP,j,1594,HP,win,7,15,LP,no,-0.7272727272727273,-0.5,0.5,1
107,24,female,Spanish,exp,3,4,exp,no,630,mixed,f,1220,loss,0,1061,0.6,30,0.4,50,LP-HP,j,1145,HP,win,18,20,LP,no,-0.10526315789473684,0.5,-0.5,1
107,24,female,Spanish,exp,3,6,exp,no,634,mixed,j,974,loss,0,480,0.7,30,0.3,40,HP-LP,f,658,HP,win,21,12,HP,yes,0.5454545454545454,0.5,-0.5,1
107,24,female,Spanish,exp,3,8,exp,no,1125,mixed,j,604,win,0,134,0.6,30,0.4,50,HP-LP,f,914,HP,win,18,20,LP,no,-0.10526315789473684,-0.5,-0.5,1
107,24,female,Spanish,exp,3,10,exp,no,797,mixed,j,1340,loss,0,545,0.7,30,0.3,40,LP-HP,j,760,HP,win,21,12,HP,yes,0.5454545454545454,0.5,-0.5,1
107,24,female,Spanish,exp,3,12,exp,no,563,mixed,f,644,win,0,733,0.7,30,0.3,40,LP-HP,j,730,HP,win,21,12,HP,yes,0.5454545454545454,-0.5,-0.5,1
107,24,female,Spanish,exp,3,18,exp,yes,642,mixed,j,603,loss,1,890,0.7,30,0.3,40,HP-LP,f,1252,HP,no-win,21,12,HP,yes,0.5454545454545454,0.5,0.5,1
107,24,female,Spanish,exp,3,22,exp,no,466,mixed,f,789,loss,0,195,0.7,10,0.3,30,LP-HP,j,694,HP,win,7,9,LP,no,-0.25,0.5,-0.5,1
107,24,female,Spanish,exp,3,24,exp,no,790,mixed,j,599,loss,0,284,0.7,10,0.3,50,HP-LP,f,1170,HP,win,7,15,LP,no,-0.7272727272727273,0.5,-0.5,1
107,24,female,Spanish,exp,3,26,exp,no,440,mixed,f,671,win,0,488,0.7,20,0.3,30,LP-HP,j,884,HP,no-win,14,9,HP,yes,0.43478260869565216,-0.5,-0.5,1
107,24,female,Spanish,exp,3,28,exp,no,524,mixed,f,655,loss,1,1210,0.8,10,0.2,20,HP-LP,f,644,HP,win,8,4,HP,yes,0.6666666666666666,0.5,-0.5,1
107,24,female,Spanish,exp,3,30,exp,yes,398,mixed,j,643,loss,2,555,0.7,10,0.3,50,HP-LP,f,1524,HP,win,7,15,LP,no,-0.7272727272727273,0.5,0.5,1
107,24,female,Spanish,exp,3,32,exp,yes,449,mixed,f,814,loss,2,601,0.7,20,0.3,30,LP-HP,j,1040,HP,win,14,9,HP,yes,0.43478260869565216,0.5,0.5,1
107,24,female,Spanish,exp,3,34,exp,yes,454,mixed,f,570,win,1,483,0.7,10,0.3,50,HP-LP,f,974,HP,win,7,15,LP,no,-0.7272727272727273,-0.5,0.5,1
107,24,female,Spanish,exp,3,36,exp,no,400,mixed,j,709,win,0,798,0.8,10,0.2,20,LP-HP,j,629,HP,win,8,4,HP,yes,0.6666666666666666,-0.5,-0.5,1
107,24,female,Spanish,exp,3,38,exp,no,378,mixed,f,685,loss,0,75,0.6,40,0.4,50,LP-HP,j,1484,HP,no-win,24,20,HP,yes,0.18181818181818185,0.5,-0.5,1
107,24,female,Spanish,exp,3,40,exp,no,596,mixed,j,625,loss,0,77,0.8,10,0.2,20,LP-HP,j,619,HP,no-win,8,4,HP,yes,0.6666666666666666,0.5,-0.5,1
107,24,female,Spanish,exp,3,42,exp,yes,496,mixed,f,565,loss,1,492,0.6,40,0.4,50,LP-HP,j,645,HP,win,24,20,HP,yes,0.18181818181818185,0.5,0.5,1
107,24,female,Spanish,exp,3,48,exp,yes,407,mixed,j,597,loss,1,545,0.7,30,0.3,40,LP-HP,j,760,HP,win,21,12,HP,yes,0.5454545454545454,0.5,0.5,1
107,24,female,Spanish,exp,3,52,exp,no,494,mixed,f,564,loss,0,677,0.6,10,0.4,40,LP-HP,j,804,HP,win,6,16,LP,no,-0.9090909090909092,0.5,-0.5,1
107,24,female,Spanish,exp,4,2,exp,yes,918,mixed,j,670,loss,1,941,0.6,20,0.4,50,HP-LP,f,850,HP,win,12,20,LP,no,-0.5,0.5,0.5,1
107,24,female,Spanish,exp,4,4,exp,yes,518,mixed,f,865,loss,2,1080,0.8,10,0.2,20,LP-HP,j,1118,HP,win,8,4,HP,yes,0.6666666666666666,0.5,0.5,1
107,24,female,Spanish,exp,4,6,exp,no,390,mixed,f,516,win,1,843,0.6,20,0.4,50,HP-LP,f,709,HP,win,12,20,LP,no,-0.5,-0.5,-0.5,1
107,24,female,Spanish,exp,4,8,exp,yes,90,mixed,j,500,loss,2,498,0.7,10,0.3,30,LP-HP,j,839,HP,win,7,9,LP,no,-0.25,0.5,0.5,1
107,24,female,Spanish,exp,4,12,exp,no,489,mixed,j,268,win,0,33,0.7,20,0.3,30,HP-LP,f,649,HP,win,14,9,HP,yes,0.43478260869565216,-0.5,-0.5,1
107,24,female,Spanish,exp,4,16,exp,no,415,mixed,f,489,loss,0,69,0.6,20,0.4,50,HP-LP,f,4316,HP,win,12,20,LP,no,-0.5,0.5,-0.5,1
107,24,female,Spanish,exp,4,18,exp,no,733,mixed,j,424,win,1,472,0.6,40,0.4,50,HP-LP,f,916,HP,win,24,20,HP,yes,0.18181818181818185,-0.5,-0.5,1
107,24,female,Spanish,exp,4,20,exp,yes,438,mixed,j,500,win,1,502,0.6,20,0.4,50,HP-LP,f,770,HP,win,12,20,LP,no,-0.5,-0.5,0.5,1
107,24,female,Spanish,exp,4,24,exp,yes,462,mixed,f,509,loss,1,458,0.6,40,0.4,50,HP-LP,f,730,HP,no-win,24,20,HP,yes,0.18181818181818185,0.5,0.5,1
107,24,female,Spanish,exp,4,26,exp,yes,99,mixed,j,561,win,1,581,0.7,30,0.3,40,LP-HP,j,694,HP,win,21,12,HP,yes,0.5454545454545454,-0.5,0.5,1
107,24,female,Spanish,exp,4,28,exp,yes,335,mixed,j,449,loss,2,465,0.6,20,0.4,50,LP-HP,j,835,HP,win,12,20,LP,no,-0.5,0.5,0.5,1
107,24,female,Spanish,exp,4,32,exp,yes,348,mixed,f,434,win,1,298,0.6,30,0.4,50,HP-LP,f,760,HP,win,18,20,LP,no,-0.10526315789473684,-0.5,0.5,1
107,24,female,Spanish,exp,4,34,exp,yes,206,mixed,j,415,loss,4,561,0.8,20,0.2,30,HP-LP,f,869,HP,no-win,16,6,HP,yes,0.9090909090909092,0.5,0.5,1
107,24,female,Spanish,exp,4,38,exp,no,69,mixed,j,463,win,1,818,0.7,10,0.3,50,LP-HP,j,700,HP,no-win,7,15,LP,no,-0.7272727272727273,-0.5,-0.5,1
107,24,female,Spanish,exp,4,40,exp,no,514,mixed,j,478,win,1,702,0.6,10,0.4,40,HP-LP,f,820,HP,no-win,6,16,LP,no,-0.9090909090909092,-0.5,-0.5,1
107,24,female,Spanish,exp,4,42,exp,no,406,mixed,j,529,loss,0,976,0.6,20,0.4,50,LP-HP,j,861,HP,no-win,12,20,LP,no,-0.5,0.5,-0.5,1
107,24,female,Spanish,exp,4,44,exp,yes,61,mixed,f,902,win,1,566,0.7,20,0.3,30,LP-HP,j,1063,HP,no-win,14,9,HP,yes,0.43478260869565216,-0.5,0.5,1
107,24,female,Spanish,exp,4,48,exp,no,143,mixed,f,482,win,1,496,0.7,10,0.3,30,LP-HP,j,644,HP,win,7,9,LP,no,-0.25,-0.5,-0.5,1
107,24,female,Spanish,exp,4,50,exp,no,106,mixed,f,754,loss,1,849,0.7,10,0.3,30,HP-LP,f,1595,HP,win,7,9,LP,no,-0.25,0.5,-0.5,1
107,24,female,Spanish,exp,4,52,exp,yes,103,mixed,j,590,win,1,663,0.8,20,0.2,30,HP-LP,f,618,HP,no-win,16,6,HP,yes,0.9090909090909092,-0.5,0.5,1
107,24,female,Spanish,exp,5,4,exp,yes,346,mixed,f,589,win,1,487,0.7,10,0.3,30,LP-HP,j,618,HP,win,7,9,LP,no,-0.25,-0.5,0.5,1
107,24,female,Spanish,exp,5,8,exp,yes,165,mixed,j,570,win,1,643,0.8,20,0.2,30,LP-HP,j,950,HP,no-win,16,6,HP,yes,0.9090909090909092,-0.5,0.5,1
107,24,female,Spanish,exp,5,10,exp,yes,162,mixed,f,764,loss,2,459,0.8,20,0.2,30,LP-HP,j,314,HP,win,16,6,HP,yes,0.9090909090909092,0.5,0.5,1
107,24,female,Spanish,exp,5,12,exp,no,57,mixed,f,585,win,1,381,0.6,20,0.4,50,LP-HP,j,1500,HP,win,12,20,LP,no,-0.5,-0.5,-0.5,1
107,24,female,Spanish,exp,5,14,exp,yes,376,mixed,j,399,loss,3,440,0.6,30,0.4,50,LP-HP,j,1128,HP,win,18,20,LP,no,-0.10526315789473684,0.5,0.5,1
107,24,female,Spanish,exp,5,16,exp,no,609,mixed,f,605,win,1,541,0.8,20,0.2,30,LP-HP,j,383,HP,win,16,6,HP,yes,0.9090909090909092,-0.5,-0.5,1
107,24,female,Spanish,exp,5,18,exp,no,305,mixed,j,595,win,1,512,0.7,30,0.3,40,HP-LP,f,463,HP,win,21,12,HP,yes,0.5454545454545454,-0.5,-0.5,1
107,24,female,Spanish,exp,5,20,exp,yes,192,mixed,j,510,win,1,253,0.6,40,0.4,50,HP-LP,f,665,HP,win,24,20,HP,yes,0.18181818181818185,-0.5,0.5,1
107,24,female,Spanish,exp,5,22,exp,yes,343,mixed,j,603,win,3,574,0.7,20,0.3,30,HP-LP,f,745,HP,win,14,9,HP,yes,0.43478260869565216,-0.5,0.5,1
107,24,female,Spanish,exp,5,24,exp,no,458,mixed,j,416,loss,1,637,0.7,10,0.3,50,LP-HP,j,595,HP,win,7,15,LP,no,-0.7272727272727273,0.5,-0.5,1
107,24,female,Spanish,exp,5,30,exp,no,68,mixed,j,590,loss,1,169,0.8,20,0.2,30,HP-LP,f,570,HP,win,16,6,HP,yes,0.9090909090909092,0.5,-0.5,1
107,24,female,Spanish,exp,5,32,exp,no,211,mixed,j,465,loss,1,206,0.7,20,0.3,30,LP-HP,j,609,HP,win,14,9,HP,yes,0.43478260869565216,0.5,-0.5,1
107,24,female,Spanish,exp,5,34,exp,yes,500,mixed,f,499,win,5,587,0.6,30,0.4,50,LP-HP,j,1053,HP,win,18,20,LP,no,-0.10526315789473684,-0.5,0.5,1
107,24,female,Spanish,exp,5,36,exp,yes,221,mixed,j,574,loss,3,791,0.6,10,0.4,40,HP-LP,f,614,HP,win,6,16,LP,no,-0.9090909090909092,0.5,0.5,1
107,24,female,Spanish,exp,5,38,exp,no,50,mixed,j,475,loss,2,349,0.6,30,0.4,50,HP-LP,f,635,HP,no-win,18,20,LP,no,-0.10526315789473684,0.5,-0.5,1
107,24,female,Spanish,exp,5,42,exp,yes,447,mixed,j,435,win,1,736,0.8,10,0.2,20,LP-HP,j,648,HP,win,8,4,HP,yes,0.6666666666666666,-0.5,0.5,1
107,24,female,Spanish,exp,5,46,exp,no,369,mixed,j,363,loss,1,674,0.8,20,0.2,30,LP-HP,j,515,HP,win,16,6,HP,yes,0.9090909090909092,0.5,-0.5,1
107,24,female,Spanish,exp,5,48,exp,no,38,mixed,j,565,win,1,426,0.6,30,0.4,50,LP-HP,j,996,HP,win,18,20,LP,no,-0.10526315789473684,-0.5,-0.5,1
107,24,female,Spanish,exp,5,50,exp,yes,312,mixed,f,374,loss,1,859,0.6,10,0.4,40,LP-HP,f,1305,LP,no-win,6,16,LP,yes,-0.9090909090909092,0.5,0.5,0
107,24,female,Spanish,exp,5,52,exp,yes,402,mixed,j,360,win,1,351,0.7,30,0.3,40,HP-LP,f,705,HP,win,21,12,HP,yes,0.5454545454545454,-0.5,0.5,1
107,24,female,Spanish,exp,6,2,exp,yes,768,mixed,j,465,loss,2,700,0.6,30,0.4,50,HP-LP,f,2061,HP,win,18,20,LP,no,-0.10526315789473684,0.5,0.5,1
107,24,female,Spanish,exp,6,6,exp,no,264,mixed,j,464,loss,1,362,0.6,10,0.4,40,HP-LP,f,474,HP,no-win,6,16,LP,no,-0.9090909090909092,0.5,-0.5,1
107,24,female,Spanish,exp,6,10,exp,yes,189,mixed,j,482,loss,4,832,0.7,10,0.3,30,HP-LP,f,501,HP,win,7,9,LP,no,-0.25,0.5,0.5,1
107,24,female,Spanish,exp,6,12,exp,no,279,mixed,j,675,loss,1,619,0.6,40,0.4,50,HP-LP,f,579,HP,no-win,24,20,HP,yes,0.18181818181818185,0.5,-0.5,1
107,24,female,Spanish,exp,6,14,exp,no,115,mixed,j,526,win,2,791,0.7,10,0.3,50,HP-LP,f,518,HP,no-win,7,15,LP,no,-0.7272727272727273,-0.5,-0.5,1
107,24,female,Spanish,exp,6,16,exp,no,129,mixed,j,624,win,0,826,0.6,10,0.4,40,LP-HP,f,1828,LP,win,6,16,LP,yes,-0.9090909090909092,-0.5,-0.5,0
107,24,female,Spanish,exp,6,20,exp,no,373,mixed,j,364,win,1,357,0.8,10,0.2,20,HP-LP,f,324,HP,win,8,4,HP,yes,0.6666666666666666,-0.5,-0.5,1
107,24,female,Spanish,exp,6,22,exp,yes,96,mixed,j,529,loss,3,475,0.8,10,0.2,20,HP-LP,f,659,HP,win,8,4,HP,yes,0.6666666666666666,0.5,0.5,1
107,24,female,Spanish,exp,6,24,exp,yes,404,mixed,j,604,win,2,418,0.6,10,0.4,40,HP-LP,f,985,HP,no-win,6,16,LP,no,-0.9090909090909092,-0.5,0.5,1
107,24,female,Spanish,exp,6,26,exp,no,206,mixed,j,701,win,0,494,0.8,20,0.2,30,HP-LP,f,518,HP,win,16,6,HP,yes,0.9090909090909092,-0.5,-0.5,1
107,24,female,Spanish,exp,6,30,exp,yes,84,mixed,j,534,win,2,182,0.7,10,0.3,30,HP-LP,f,642,HP,win,7,9,LP,no,-0.25,-0.5,0.5,1
107,24,female,Spanish,exp,6,32,exp,no,548,mixed,j,376,win,1,361,0.6,40,0.4,50,LP-HP,j,1012,HP,win,24,20,HP,yes,0.18181818181818185,-0.5,-0.5,1
107,24,female,Spanish,exp,6,34,exp,yes,18,mixed,j,535,win,5,596,0.6,20,0.4,50,LP-HP,j,1959,HP,win,12,20,LP,no,-0.5,-0.5,0.5,1
107,24,female,Spanish,exp,6,36,exp,no,179,mixed,f,428,win,1,425,0.7,10,0.3,30,HP-LP,f,764,HP,no-win,7,9,LP,no,-0.25,-0.5,-0.5,1
