subject_ID,age,gender,nationality,exp_part,block_number,trial_number,trial_type,delay,game1_startRT,game1_color,game1_respKey,game1_respRT,game1_outcome,game2_delay_premature,game2_startRT,game2_HP_prob,game2_HP_amount,game2_LP_prob,game2_LP_amount,game2_pos,game2_respKey,game2_respRT,game2_choice,game2_outcome
33,34,male,German,practice_game1,1,1,practice,na,1024,mixed,j,2519,loss,0,0,0,0,0,0,na,na,0,na,na
33,34,male,German,practice_game1,1,2,practice,na,1470,mixed,j,978,win,0,0,0,0,0,0,na,na,0,na,na
33,34,male,German,practice_game1,1,3,practice,na,735,mixed,f,2118,loss,0,0,0,0,0,0,na,na,0,na,na
33,34,male,German,practice_game1,1,4,practice,na,729,mixed,j,1197,win,0,0,0,0,0,0,na,na,0,na,na
33,34,male,German,practice_game2,2,1,practice,na,0,na,na,0,na,0,905,0.6,10,0.4,40,LP-HP,f,2809,LP,win
33,34,male,German,practice_game2,2,2,practice,na,0,na,na,0,na,0,669,0.7,10,0.3,50,HP-LP,j,2340,LP,win
33,34,male,German,practice_game2,2,3,practice,na,0,na,na,0,na,0,1018,0.8,20,0.2,30,HP-LP,f,1740,HP,win
33,34,male,German,practice_game2,2,4,practice,na,0,na,na,0,na,0,946,0.8,10,0.2,20,LP-HP,j,1572,HP,win
33,34,male,German,practice_game2,2,5,practice,na,0,na,na,0,na,0,1814,0.8,50,0.4,20,HP-LP,f,1420,HP,no-win
33,34,male,German,exp,3,2,catch,no,1121,mixed,j,1234,win,0,533,0.8,40,0.2,20,LP-HP,j,1249,HP,win
33,34,male,German,exp,3,4,exp,yes,622,mixed,f,1328,loss,0,690,0.6,10,0.4,40,LP-HP,f,1722,LP,win
33,34,male,German,exp,3,6,catch,no,714,mixed,j,582,loss,0,329,0.8,40,0.2,20,LP-HP,j,1176,HP,win
33,34,male,German,exp,3,8,exp,no,505,mixed,j,681,win,0,517,0.8,20,0.2,30,LP-HP,j,1178,HP,no-win
33,34,male,German,exp,3,10,exp,no,669,mixed,f,915,win,0,616,0.6,20,0.4,50,LP-HP,f,1196,LP,win
33,34,male,German,exp,3,12,catch,no,592,mixed,j,889,win,0,587,0.7,30,0.3,10,LP-HP,j,909,HP,win
33,34,male,German,exp,3,14,exp,no,564,mixed,f,773,win,0,460,0.8,10,0.2,20,HP-LP,f,1056,HP,win
33,34,male,German,exp,3,16,exp,yes,1454,mixed,j,710,loss,2,538,0.6,20,0.4,50,HP-LP,j,1633,LP,win
33,34,male,German,exp,3,18,exp,yes,309,mixed,j,684,loss,2,1277,0.7,10,0.3,50,LP-HP,f,1828,LP,no-win
33,34,male,German,exp,3,20,exp,yes,485,mixed,j,568,loss,2,475,0.6,10,0.4,40,HP-LP,f,1635,HP,win
33,34,male,German,exp,3,22,catch,no,492,mixed,j,536,loss,0,294,0.8,10,0.7,50,HP-LP,j,1153,LP,win
33,34,male,German,exp,3,24,exp,yes,855,mixed,j,606,loss,2,493,0.6,40,0.4,50,HP-LP,f,809,HP,no-win
33,34,male,German,exp,3,26,exp,yes,474,mixed,j,1424,win,1,622,0.6,20,0.4,50,LP-HP,j,1417,HP,no-win
33,34,male,German,exp,3,28,exp,yes,504,mixed,f,626,win,1,487,0.7,30,0.3,40,HP-LP,f,701,HP,no-win
33,34,male,German,exp,3,30,exp,no,375,mixed,j,997,win,0,205,0.7,10,0.3,30,LP-HP,j,1620,HP,win
33,34,male,German,exp,3,32,exp,yes,372,mixed,j,693,loss,1,467,0.7,30,0.3,40,HP-LP,f,679,HP,win
33,34,male,German,exp,3,34,catch,no,81,mixed,j,675,win,0,455,0.7,30,0.3,10,HP-LP,j,523,LP,no-win
33,34,male,German,exp,3,36,exp,no,411,mixed,f,580,loss,0,232,0.8,10,0.2,20,HP-LP,f,929,HP,win
33,34,male,German,exp,3,38,exp,no,194,mixed,j,679,win,0,626,0.8,20,0.2,30,HP-LP,f,782,HP,win
33,34,male,German,exp,3,40,exp,no,543,mixed,j,590,loss,0,200,0.8,20,0.2,30,HP-LP,f,662,HP,win
33,34,male,German,exp,3,42,catch,no,5,mixed,j,575,loss,0,0,0.6,10,0.5,50,HP-LP,f,626,HP,no-win
33,34,male,German,exp,3,44,exp,yes,493,mixed,j,570,loss,1,641,0.7,20,0.3,30,HP-LP,f,884,HP,win
33,34,male,German,exp,3,46,exp,no,444,mixed,f,520,win,0,20,0.6,10,0.4,40,LP-HP,j,1607,HP,win
33,34,male,German,exp,3,48,exp,yes,653,mixed,j,963,loss,1,786,0.7,10,0.3,30,LP-HP,j,1631,HP,no-win
33,34,male,German,exp,3,50,exp,yes,520,mixed,f,568,win,1,704,0.8,20,0.2,30,LP-HP,j,1034,HP,win
33,34,male,German,exp,3,52,exp,no,555,mixed,j,626,win,0,1703,0.6,40,0.4,50,HP-LP,f,1057,HP,no-win
33,34,male,German,exp,4,2,catch,no,1348,mixed,j,360,win,0,457,0.8,50,0.2,30,HP-LP,f,652,HP,win
33,34,male,German,exp,4,4,exp,no,744,mixed,j,475,loss,0,275,0.7,10,0.3,30,HP-LP,f,659,HP,win
33,34,male,German,exp,4,6,catch,no,509,mixed,j,567,loss,0,181,0.7,30,0.3,10,HP-LP,f,693,HP,win
33,34,male,German,exp,4,8,catch,no,581,mixed,j,380,loss,0,279,0.8,50,0.2,30,LP-HP,j,992,HP,win
33,34,male,German,exp,4,10,catch,no,419,mixed,j,502,loss,0,98,0.8,10,0.7,50,LP-HP,f,739,LP,win
33,34,male,German,exp,4,12,exp,no,626,mixed,f,797,win,0,569,0.7,10,0.3,50,LP-HP,f,1976,LP,no-win
33,34,male,German,exp,4,14,exp,no,436,mixed,j,387,win,0,503,0.8,10,0.2,20,LP-HP,j,375,HP,win
33,34,male,German,exp,4,16,exp,yes,377,mixed,j,649,win,1,453,0.8,10,0.2,20,LP-HP,j,1386,HP,win
33,34,male,German,exp,4,18,exp,no,455,mixed,f,794,win,0,292,0.6,10,0.4,40,HP-LP,f,664,HP,no-win
33,34,male,German,exp,4,20,exp,yes,219,mixed,j,592,win,1,550,0.6,30,0.4,50,LP-HP,j,983,HP,win
33,34,male,German,exp,4,22,exp,yes,542,mixed,j,609,win,3,475,0.7,10,0.3,30,LP-HP,j,972,HP,win
33,34,male,German,exp,4,24,exp,no,82,mixed,f,1123,win,0,734,0.7,10,0.3,50,HP-LP,f,861,HP,win
33,34,male,German,exp,4,26,exp,yes,619,mixed,j,934,loss,2,444,0.6,30,0.4,50,HP-LP,f,838,HP,no-win
33,34,male,German,exp,4,28,exp,yes,677,mixed,j,1060,loss,0,705,0.7,10,0.3,30,HP-LP,f,701,HP,win
33,34,male,German,exp,4,30,catch,no,424,mixed,j,424,win,0,284,0.7,10,0.6,50,LP-HP,f,774,LP,no-win
33,34,male,German,exp,4,32,exp,no,204,mixed,j,530,loss,0,238,0.7,20,0.3,30,HP-LP,f,740,HP,win
33,34,male,German,exp,4,34,exp,yes,255,mixed,j,447,win,1,557,0.6,10,0.4,40,HP-LP,f,896,HP,no-win
33,34,male,German,exp,4,36,exp,no,512,mixed,j,551,win,0,669,0.7,20,0.3,30,HP-LP,f,726,HP,no-win
33,34,male,German,exp,4,38,exp,no,593,mixed,j,520,win,0,545,0.6,40,0.4,50,LP-HP,j,1393,HP,no-win
33,34,male,German,exp,4,40,exp,no,421,mixed,j,509,loss,0,398,0.6,10,0.4,40,LP-HP,f,1728,LP,win
33,34,male,German,exp,4,42,exp,no,25,mixed,j,453,loss,0,258,0.6,30,0.4,50,LP-HP,f,2033,LP,no-win
33,34,male,German,exp,4,44,catch,no,453,mixed,j,319,win,0,462,0.8,10,0.7,50,LP-HP,j,400,HP,no-win
33,34,male,German,exp,4,46,exp,no,403,mixed,f,504,loss,0,213,0.6,40,0.4,50,LP-HP,j,1275,HP,win
33,34,male,German,exp,4,48,exp,yes,353,mixed,j,510,win,0,578,0.7,10,0.3,30,HP-LP,f,1086,HP,win
33,34,male,German,exp,4,50,exp,yes,339,mixed,j,330,loss,1,417,0.8,20,0.2,30,LP-HP,j,1119,HP,win
33,34,male,German,exp,4,52,exp,no,565,mixed,j,1228,loss,0,676,0.8,20,0.2,30,LP-HP,j,952,HP,win
33,34,male,German,exp,5,2,exp,no,1291,mixed,j,530,loss,0,724,0.6,20,0.4,50,HP-LP,j,1552,LP,no-win
33,34,male,German,exp,5,4,exp,no,579,mixed,j,949,loss,0,244,0.6,20,0.4,50,LP-HP,j,1372,HP,win
33,34,male,German,exp,5,6,exp,yes,461,mixed,j,615,win,0,489,0.6,30,0.4,50,HP-LP,f,892,HP,win
33,34,male,German,exp,5,8,exp,no,566,mixed,j,565,win,0,574,0.7,20,0.3,30,LP-HP,j,864,HP,win
33,34,male,German,exp,5,10,exp,yes,425,mixed,f,377,win,0,557,0.7,20,0.3,30,HP-LP,f,752,HP,win
33,34,male,German,exp,5,12,exp,no,503,mixed,j,499,loss,0,616,0.6,40,0.4,50,HP-LP,f,715,HP,win
33,34,male,German,exp,5,14,catch,no,727,mixed,j,493,win,0,497,0.7,10,0.6,50,HP-LP,j,935,LP,no-win
33,34,male,German,exp,5,16,exp,no,613,mixed,f,366,loss,0,655,0.8,10,0.2,20,LP-HP,j,696,HP,win
33,34,male,German,exp,5,18,exp,yes,853,mixed,j,518,win,1,542,0.7,20,0.3,30,LP-HP,j,854,HP,no-win
33,34,male,German,exp,5,20,exp,no,463,mixed,f,536,win,0,496,0.7,30,0.3,40,LP-HP,j,774,HP,win
33,34,male,German,exp,5,22,exp,yes,453,mixed,f,529,win,1,553,0.7,10,0.3,50,HP-LP,f,634,HP,win
33,34,male,German,exp,5,24,catch,no,406,mixed,j,886,win,0,162,0.6,10,0.5,50,LP-HP,f,1089,LP,win
33,34,male,German,exp,5,26,catch,no,427,mixed,f,582,win,0,32,0.8,50,0.2,30,LP-HP,j,772,HP,win
33,34,male,German,exp,5,28,catch,no,830,mixed,j,512,loss,0,485,0.7,30,0.3,10,LP-HP,j,458,HP,win
33,34,male,German,exp,5,30,exp,yes,217,mixed,f,694,loss,1,589,0.7,20,0.3,30,LP-HP,j,625,HP,no-win
33,34,male,German,exp,5,32,exp,yes,538,mixed,j,977,loss,1,748,0.6,30,0.4,50,LP-HP,j,1121,HP,no-win
33,34,male,German,exp,5,34,exp,no,489,mixed,j,522,win,0,3180,0.6,30,0.4,50,LP-HP,f,1445,LP,no-win
33,34,male,German,exp,5,36,exp,yes,1038,mixed,j,368,win,0,469,0.6,40,0.4,50,HP-LP,f,774,HP,no-win
33,34,male,German,exp,5,38,exp,no,765,mixed,j,444,win,0,641,0.7,10,0.3,30,HP-LP,f,1039,HP,win
33,34,male,German,exp,5,40,exp,yes,523,mixed,j,369,loss,1,401,0.6,20,0.4,50,LP-HP,j,431,HP,win
33,34,male,German,exp,5,42,catch,no,451,mixed,j,542,loss,0,370,0.8,40,0.2,20,HP-LP,f,770,HP,win
33,34,male,German,exp,5,44,catch,no,301,mixed,f,519,loss,0,326,0.7,10,0.6,50,LP-HP,j,455,HP,win
33,34,male,German,exp,5,46,exp,yes,223,mixed,j,523,win,1,908,0.7,10,0.3,50,LP-HP,f,1195,LP,no-win
33,34,male,German,exp,5,48,exp,no,766,mixed,j,450,win,0,260,0.6,20,0.4,50,HP-LP,j,1248,LP,no-win
33,34,male,German,exp,5,50,exp,no,561,mixed,j,525,win,0,375,0.7,30,0.3,40,HP-LP,f,757,HP,no-win
33,34,male,German,exp,5,52,exp,yes,672,mixed,j,562,loss,1,907,0.8,20,0.2,30,HP-LP,j,373,LP,win
33,34,male,German,exp,6,2,catch,no,1000,mixed,j,619,win,0,498,0.8,40,0.2,20,HP-LP,f,1752,HP,win
33,34,male,German,exp,6,4,exp,no,800,mixed,j,753,loss,0,404,0.7,10,0.3,50,LP-HP,f,1299,LP,no-win
33,34,male,German,exp,6,6,exp,yes,467,mixed,j,538,win,1,473,0.6,10,0.4,40,LP-HP,f,1978,LP,no-win
33,34,male,German,exp,6,8,catch,no,490,mixed,j,499,loss,0,652,0.7,10,0.6,50,HP-LP,j,1122,LP,no-win
33,34,male,German,exp,6,10,exp,no,383,mixed,j,465,loss,0,470,0.7,20,0.3,30,LP-HP,j,864,HP,win
33,34,male,German,exp,6,12,exp,no,705,mixed,f,361,win,0,380,0.6,30,0.4,50,HP-LP,f,672,HP,win
33,34,male,German,exp,6,14,exp,no,399,mixed,j,230,loss,0,270,0.7,10,0.3,30,LP-HP,j,384,HP,win
33,34,male,German,exp,6,16,exp,yes,449,mixed,f,358,win,1,460,0.8,10,0.2,20,HP-LP,f,693,HP,win
33,34,male,German,exp,6,18,exp,yes,618,mixed,j,339,win,1,521,0.6,40,0.4,50,LP-HP,j,1370,HP,no-win
33,34,male,German,exp,6,20,exp,yes,393,mixed,f,322,win,1,292,0.7,30,0.3,40,LP-HP,f,268,LP,no-win
33,34,male,German,exp,6,22,exp,yes,426,mixed,j,611,loss,2,389,0.7,30,0.3,40,LP-HP,j,585,HP,win
33,34,male,German,exp,6,24,catch,no,479,mixed,f,416,win,0,627,0.8,10,0.7,50,HP-LP,j,817,LP,win
33,34,male,German,exp,6,26,exp,no,408,mixed,f,896,loss,0,276,0.7,10,0.3,50,HP-LP,j,227,LP,win
33,34,male,German,exp,6,28,exp,yes,254,mixed,f,446,win,1,508,0.6,20,0.4,50,HP-LP,f,786,HP,win
33,34,male,German,exp,6,30,exp,yes,436,mixed,j,441,loss,1,632,0.7,10,0.3,50,HP-LP,j,1073,LP,win
33,34,male,German,exp,6,32,exp,yes,418,mixed,f,437,win,1,606,0.8,20,0.2,30,HP-LP,f,679,HP,win
33,34,male,German,exp,6,34,exp,yes,452,mixed,j,407,loss,0,476,0.8,10,0.2,20,HP-LP,f,737,HP,win
33,34,male,German,exp,6,36,catch,no,546,mixed,j,478,loss,0,372,0.6,10,0.5,50,LP-HP,f,1049,LP,win
33,34,male,German,exp,6,38,catch,no,326,mixed,j,465,win,0,523,0.6,10,0.5,50,HP-LP,j,1003,LP,no-win
33,34,male,German,exp,6,40,exp,yes,2649,mixed,f,809,loss,1,918,0.6,40,0.4,50,LP-HP,j,696,HP,no-win
33,34,male,German,exp,6,44,catch,no,719,mixed,j,577,loss,0,766,0.8,50,0.2,30,HP-LP,f,664,HP,win
33,34,male,German,exp,6,42,exp,no,869,mixed,f,1133,loss,0,97415,0.6,10,0.4,40,HP-LP,f,1251,HP,win
33,34,male,German,exp,6,46,exp,no,684,mixed,j,577,loss,0,595,0.6,30,0.4,50,HP-LP,f,717,HP,win
33,34,male,German,exp,6,48,exp,yes,640,mixed,j,581,loss,1,602,0.8,10,0.2,20,LP-HP,j,803,HP,win
33,34,male,German,exp,6,50,exp,no,411,mixed,f,435,loss,0,247,0.7,30,0.3,40,LP-HP,j,1348,HP,win
33,34,male,German,exp,6,52,exp,no,514,mixed,j,741,loss,0,281,0.7,30,0.3,40,HP-LP,f,726,HP,win
