subject_ID,age,gender,nationality,exp_part,block_number,trial_number,trial_type,delay,game1_startRT,game1_color,game1_respKey,game1_respRT,game1_outcome,game2_delay_premature,game2_startRT,game2_HP_prob,game2_HP_amount,game2_LP_prob,game2_LP_amount,game2_pos,game2_respKey,game2_respRT,game2_choice,game2_outcome
42,29,female,South African,practice_game1,1,1,practice,na,935,mixed,j,2703,win,0,0,0,0,0,0,na,na,0,na,na
42,29,female,South African,practice_game1,1,2,practice,na,2002,mixed,j,2205,loss,0,0,0,0,0,0,na,na,0,na,na
42,29,female,South African,practice_game1,1,3,practice,na,2340,mixed,j,1270,win,0,0,0,0,0,0,na,na,0,na,na
42,29,female,South African,practice_game1,1,4,practice,na,913,mixed,f,535,loss,0,0,0,0,0,0,na,na,0,na,na
42,29,female,South African,practice_game2,2,1,practice,na,0,na,na,0,na,0,1124,0.8,50,0.4,20,LP-HP,f,3348,LP,no-win
42,29,female,South African,practice_game2,2,2,practice,na,0,na,na,0,na,0,5358,0.8,10,0.2,20,HP-LP,j,2718,LP,no-win
42,29,female,South African,practice_game2,2,3,practice,na,0,na,na,0,na,0,6233,0.7,10,0.3,50,HP-LP,f,1002,HP,win
42,29,female,South African,practice_game2,2,4,practice,na,0,na,na,0,na,0,2749,0.6,10,0.4,40,LP-HP,f,2437,LP,no-win
42,29,female,South African,practice_game2,2,5,practice,na,0,na,na,0,na,0,2644,0.8,20,0.2,30,HP-LP,f,2554,HP,win
42,29,female,South African,exp,3,2,exp,no,2698,mixed,j,1831,win,0,2672,0.6,40,0.4,50,HP-LP,f,3410,HP,no-win
42,29,female,South African,exp,3,4,exp,no,1191,mixed,f,1216,win,0,1079,0.8,20,0.2,30,LP-HP,j,2159,HP,win
42,29,female,South African,exp,3,6,exp,yes,976,mixed,j,1100,win,0,2271,0.7,10,0.3,30,LP-HP,j,2639,HP,win
42,29,female,South African,exp,3,8,exp,no,843,mixed,f,2200,loss,0,750,0.8,10,0.2,20,HP-LP,f,1403,HP,win
42,29,female,South African,exp,3,10,exp,no,816,mixed,j,677,win,0,871,0.8,20,0.2,30,HP-LP,f,1068,HP,win
42,29,female,South African,exp,3,12,catch,no,719,mixed,j,761,win,0,723,0.7,30,0.3,10,LP-HP,j,1139,HP,win
42,29,female,South African,exp,3,14,exp,yes,704,mixed,j,889,win,0,805,0.6,30,0.4,50,HP-LP,f,3149,HP,win
42,29,female,South African,exp,3,16,exp,no,1820,mixed,j,1691,loss,0,1302,0.6,10,0.4,40,LP-HP,j,1003,HP,no-win
42,29,female,South African,exp,3,18,catch,no,631,mixed,j,948,loss,0,1078,0.6,10,0.5,50,HP-LP,j,2653,LP,no-win
42,29,female,South African,exp,3,20,exp,yes,39,mixed,j,1019,win,0,1674,0.8,20,0.2,30,LP-HP,j,1175,HP,no-win
42,29,female,South African,exp,3,22,catch,no,605,mixed,f,933,loss,0,2419,0.7,30,0.3,10,LP-HP,j,1119,HP,no-win
42,29,female,South African,exp,3,24,exp,no,445,mixed,j,644,win,0,614,0.6,20,0.4,50,HP-LP,f,1599,HP,win
42,29,female,South African,exp,3,26,exp,yes,546,mixed,j,750,loss,0,1899,0.7,10,0.3,50,HP-LP,j,2685,LP,win
42,29,female,South African,exp,3,28,exp,no,812,mixed,j,771,win,0,738,0.7,10,0.3,30,HP-LP,f,2380,HP,win
42,29,female,South African,exp,3,30,exp,yes,737,mixed,j,671,loss,0,533,0.8,10,0.2,20,HP-LP,f,1195,HP,win
42,29,female,South African,exp,3,32,exp,yes,699,mixed,j,796,win,0,1267,0.7,10,0.3,50,HP-LP,f,2683,HP,win
42,29,female,South African,exp,3,34,exp,no,688,mixed,j,735,win,0,797,0.6,20,0.4,50,LP-HP,f,2092,LP,no-win
42,29,female,South African,exp,3,36,exp,no,895,mixed,j,645,loss,0,950,0.6,30,0.4,50,HP-LP,f,1259,HP,no-win
42,29,female,South African,exp,3,38,exp,yes,59,mixed,f,1285,loss,0,801,0.6,30,0.4,50,HP-LP,f,1785,HP,win
42,29,female,South African,exp,3,40,catch,no,699,mixed,j,666,win,0,1209,0.6,10,0.5,50,LP-HP,f,1833,LP,no-win
42,29,female,South African,exp,3,42,exp,no,739,mixed,j,590,win,0,697,0.7,20,0.3,30,HP-LP,f,1725,HP,no-win
42,29,female,South African,exp,3,44,catch,no,699,mixed,j,637,win,0,763,0.8,50,0.2,30,LP-HP,j,977,HP,win
42,29,female,South African,exp,3,46,exp,no,827,mixed,j,639,loss,0,721,0.7,20,0.3,30,LP-HP,j,970,HP,win
42,29,female,South African,exp,3,48,exp,yes,534,mixed,j,635,loss,0,581,0.6,40,0.4,50,HP-LP,f,917,HP,win
42,29,female,South African,exp,3,50,exp,yes,818,mixed,j,897,win,0,750,0.7,20,0.3,30,LP-HP,j,1321,HP,win
42,29,female,South African,exp,3,52,catch,no,956,mixed,j,651,loss,0,921,0.8,40,0.2,20,HP-LP,f,913,HP,win
42,29,female,South African,exp,4,2,exp,yes,1113,mixed,j,897,loss,0,833,0.7,10,0.3,30,HP-LP,f,1388,HP,win
42,29,female,South African,exp,4,4,catch,no,702,mixed,j,669,win,0,552,0.8,50,0.2,30,HP-LP,f,973,HP,win
42,29,female,South African,exp,4,6,exp,no,492,mixed,j,651,loss,0,931,0.7,10,0.3,50,LP-HP,j,1782,HP,no-win
42,29,female,South African,exp,4,8,catch,no,650,mixed,j,535,loss,0,549,0.8,40,0.2,20,LP-HP,j,876,HP,no-win
42,29,female,South African,exp,4,10,exp,no,55,mixed,j,690,loss,0,686,0.7,30,0.3,40,LP-HP,j,1021,HP,win
42,29,female,South African,exp,4,12,exp,no,824,mixed,f,419,win,0,680,0.6,10,0.4,40,HP-LP,f,1507,HP,win
42,29,female,South African,exp,4,14,catch,no,1071,mixed,f,493,loss,0,6851,0.8,50,0.2,30,LP-HP,j,797,HP,win
42,29,female,South African,exp,4,16,catch,no,714,mixed,j,1497,loss,0,545,0.7,30,0.3,10,HP-LP,f,852,HP,win
42,29,female,South African,exp,4,18,exp,yes,736,mixed,f,312,win,0,19,0.7,30,0.3,40,HP-LP,f,802,HP,win
42,29,female,South African,exp,4,20,exp,yes,1080,mixed,f,741,win,0,850,0.7,30,0.3,40,LP-HP,j,745,HP,win
42,29,female,South African,exp,4,22,exp,no,706,mixed,f,370,loss,0,583,0.7,10,0.3,30,HP-LP,f,1472,HP,win
42,29,female,South African,exp,4,24,exp,yes,511,mixed,f,534,loss,1,811,0.7,20,0.3,30,HP-LP,f,877,HP,win
42,29,female,South African,exp,4,26,exp,yes,610,mixed,f,809,win,0,502,0.6,20,0.4,50,LP-HP,j,766,HP,win
42,29,female,South African,exp,4,28,catch,no,669,mixed,j,719,win,0,624,0.8,10,0.7,50,LP-HP,f,1576,LP,win
42,29,female,South African,exp,4,30,exp,no,605,mixed,f,580,win,0,499,0.6,40,0.4,50,LP-HP,j,830,HP,no-win
42,29,female,South African,exp,4,32,exp,yes,390,mixed,f,677,loss,0,951,0.7,10,0.3,50,LP-HP,j,994,HP,no-win
42,29,female,South African,exp,4,34,exp,yes,162,mixed,f,715,win,1,669,0.7,10,0.3,30,HP-LP,f,1926,HP,win
42,29,female,South African,exp,4,36,exp,yes,573,mixed,f,1097,win,0,617,0.7,20,0.3,30,HP-LP,f,953,HP,win
42,29,female,South African,exp,4,38,exp,no,524,mixed,f,892,loss,0,627,0.8,20,0.2,30,LP-HP,j,756,HP,win
42,29,female,South African,exp,4,40,exp,no,612,mixed,f,1308,win,0,2753,0.7,30,0.3,40,LP-HP,j,882,HP,win
42,29,female,South African,exp,4,42,exp,no,680,mixed,j,808,loss,0,728,0.7,10,0.3,50,HP-LP,f,727,HP,no-win
42,29,female,South African,exp,4,44,exp,yes,823,mixed,f,892,loss,1,2681,0.6,20,0.4,50,HP-LP,f,839,HP,win
42,29,female,South African,exp,4,46,exp,no,737,mixed,f,503,win,0,600,0.8,10,0.2,20,LP-HP,j,776,HP,win
42,29,female,South African,exp,4,48,exp,no,696,mixed,f,362,loss,0,982,0.6,30,0.4,50,LP-HP,j,618,HP,no-win
42,29,female,South African,exp,4,50,exp,no,452,mixed,j,669,win,0,622,0.7,10,0.3,30,LP-HP,j,845,HP,no-win
42,29,female,South African,exp,4,52,catch,no,516,mixed,j,533,loss,0,1513,0.8,10,0.7,50,LP-HP,f,1334,LP,no-win
42,29,female,South African,exp,5,2,exp,yes,1270,mixed,j,1054,win,1,766,0.8,10,0.2,20,LP-HP,j,970,HP,win
42,29,female,South African,exp,5,4,exp,no,586,mixed,j,817,win,0,524,0.6,30,0.4,50,LP-HP,f,2097,LP,no-win
42,29,female,South African,exp,5,6,exp,no,440,mixed,j,701,loss,0,522,0.6,20,0.4,50,HP-LP,f,942,HP,no-win
42,29,female,South African,exp,5,8,catch,no,578,mixed,j,765,win,0,582,0.7,10,0.6,50,HP-LP,j,1473,LP,win
42,29,female,South African,exp,5,10,exp,no,1448,mixed,j,1930,loss,0,1651,0.7,20,0.3,30,HP-LP,f,897,HP,win
42,29,female,South African,exp,5,12,exp,yes,803,mixed,f,1060,loss,0,835,0.6,10,0.4,40,HP-LP,f,1152,HP,no-win
42,29,female,South African,exp,5,14,exp,no,766,mixed,j,650,win,0,568,0.7,30,0.3,40,HP-LP,f,886,HP,win
42,29,female,South African,exp,5,16,exp,no,624,mixed,j,757,win,0,241,0.6,30,0.4,50,HP-LP,f,898,HP,win
42,29,female,South African,exp,5,18,exp,yes,749,mixed,j,842,loss,0,3150,0.6,40,0.4,50,LP-HP,j,763,HP,win
42,29,female,South African,exp,5,20,catch,no,958,mixed,j,812,win,0,105,0.8,40,0.2,20,LP-HP,j,761,HP,win
42,29,female,South African,exp,5,22,catch,no,534,mixed,j,772,win,0,461,0.8,10,0.7,50,HP-LP,j,1964,LP,win
42,29,female,South African,exp,5,24,exp,yes,593,mixed,j,553,win,2,696,0.6,40,0.4,50,HP-LP,f,751,HP,win
42,29,female,South African,exp,5,26,exp,no,275,mixed,j,721,win,0,536,0.7,20,0.3,30,LP-HP,j,1246,HP,win
42,29,female,South African,exp,5,28,catch,no,654,mixed,j,494,loss,0,509,0.8,50,0.2,30,HP-LP,f,868,HP,no-win
42,29,female,South African,exp,5,30,exp,yes,448,mixed,j,2301,win,0,781,0.7,10,0.3,50,LP-HP,j,686,HP,win
42,29,female,South African,exp,5,32,exp,yes,648,mixed,j,963,win,1,794,0.6,10,0.4,40,LP-HP,f,1410,LP,no-win
42,29,female,South African,exp,5,34,exp,yes,485,mixed,j,703,loss,1,421,0.8,10,0.2,20,LP-HP,j,691,HP,win
42,29,female,South African,exp,5,36,exp,yes,786,mixed,j,731,win,0,916,0.8,10,0.2,20,HP-LP,f,681,HP,win
42,29,female,South African,exp,5,38,catch,no,1026,mixed,f,1060,win,0,723,0.7,10,0.6,50,LP-HP,f,2175,LP,win
42,29,female,South African,exp,5,40,catch,no,344,mixed,j,873,loss,0,495,0.6,10,0.5,50,LP-HP,f,1442,LP,no-win
42,29,female,South African,exp,5,42,exp,no,606,mixed,j,1286,win,0,932,0.7,10,0.3,50,LP-HP,j,906,HP,win
42,29,female,South African,exp,5,44,exp,yes,945,mixed,j,743,loss,0,159,0.6,20,0.4,50,LP-HP,j,1644,HP,win
42,29,female,South African,exp,5,46,exp,no,767,mixed,j,882,win,0,691,0.8,10,0.2,20,HP-LP,f,828,HP,win
42,29,female,South African,exp,5,48,exp,no,882,mixed,j,670,loss,0,580,0.7,10,0.3,30,LP-HP,j,852,HP,win
42,29,female,South African,exp,5,50,exp,yes,46,mixed,j,1239,loss,0,506,0.6,30,0.4,50,LP-HP,j,807,HP,no-win
42,29,female,South African,exp,5,52,exp,no,493,mixed,j,647,loss,0,589,0.6,40,0.4,50,LP-HP,j,1929,HP,no-win
42,29,female,South African,exp,6,2,catch,no,806,mixed,j,1095,win,0,857,0.8,40,0.2,20,HP-LP,f,763,HP,win
42,29,female,South African,exp,6,4,exp,yes,658,mixed,j,2230,loss,1,2,0.7,20,0.3,30,LP-HP,j,622,HP,win
42,29,female,South African,exp,6,6,exp,yes,2249,mixed,j,893,loss,1,921,0.7,30,0.3,40,LP-HP,j,646,HP,win
42,29,female,South African,exp,6,8,exp,yes,1266,mixed,f,3402,win,0,730,0.6,30,0.4,50,LP-HP,j,1211,HP,win
42,29,female,South African,exp,6,10,catch,no,86,mixed,f,988,loss,0,607,0.7,10,0.6,50,LP-HP,j,435,HP,win
42,29,female,South African,exp,6,12,exp,no,562,mixed,j,688,loss,0,71,0.6,20,0.4,50,LP-HP,j,748,HP,win
42,29,female,South African,exp,6,14,exp,no,1008,mixed,j,2444,loss,0,491,0.8,20,0.2,30,HP-LP,f,816,HP,no-win
42,29,female,South African,exp,6,16,exp,no,527,mixed,j,613,loss,0,52,0.6,10,0.4,40,HP-LP,f,651,HP,win
42,29,female,South African,exp,6,18,catch,no,57,mixed,f,802,win,0,614,0.6,10,0.5,50,HP-LP,j,1561,LP,win
42,29,female,South African,exp,6,20,exp,yes,586,mixed,j,498,loss,1,543,0.8,20,0.2,30,LP-HP,j,984,HP,win
42,29,female,South African,exp,6,22,catch,no,114,mixed,f,595,loss,0,1327,0.7,10,0.6,50,HP-LP,j,1286,LP,win
42,29,female,South African,exp,6,24,exp,yes,840,mixed,j,741,win,0,421,0.6,20,0.4,50,HP-LP,f,877,HP,win
42,29,female,South African,exp,6,26,exp,no,525,mixed,j,580,win,0,600,0.7,10,0.3,50,HP-LP,f,954,HP,win
42,29,female,South African,exp,6,28,exp,yes,535,mixed,j,496,win,0,431,0.6,10,0.4,40,HP-LP,f,1345,HP,win
42,29,female,South African,exp,6,30,exp,no,1183,mixed,j,631,loss,0,530,0.8,10,0.2,20,LP-HP,j,820,HP,win
42,29,female,South African,exp,6,32,exp,yes,541,mixed,j,888,win,1,949,0.8,20,0.2,30,HP-LP,f,838,HP,win
42,29,female,South African,exp,6,34,exp,yes,274,mixed,j,903,loss,1,462,0.6,10,0.4,40,LP-HP,j,987,HP,no-win
42,29,female,South African,exp,6,36,exp,yes,630,mixed,j,1492,win,0,903,0.6,40,0.4,50,LP-HP,j,845,HP,no-win
42,29,female,South African,exp,6,38,exp,no,419,mixed,j,630,loss,0,335,0.6,40,0.4,50,HP-LP,f,912,HP,win
42,29,female,South African,exp,6,40,catch,no,479,mixed,j,341,win,0,559,0.7,30,0.3,10,HP-LP,f,885,HP,no-win
42,29,female,South African,exp,6,42,exp,yes,478,mixed,j,389,loss,1,648,0.8,20,0.2,30,HP-LP,f,1198,HP,win
42,29,female,South African,exp,6,44,catch,no,537,mixed,f,816,loss,0,498,0.8,10,0.7,50,HP-LP,j,1582,LP,win
42,29,female,South African,exp,6,46,exp,no,483,mixed,j,443,loss,0,625,0.7,30,0.3,40,HP-LP,f,792,HP,win
42,29,female,South African,exp,6,48,exp,yes,653,mixed,j,452,loss,2,624,0.7,30,0.3,40,HP-LP,f,691,HP,win
42,29,female,South African,exp,6,50,exp,yes,1904,mixed,j,601,loss,1,1689,0.7,10,0.3,30,LP-HP,j,7728,HP,no-win
42,29,female,South African,exp,6,52,exp,no,2052,mixed,j,731,win,0,670,0.6,10,0.4,40,LP-HP,f,1557,LP,win
