subject_ID,age,gender,nationality,exp_part,block_number,trial_number,trial_type,delay,game1_startRT,game1_color,game1_respKey,game1_respRT,game1_outcome,game2_delay_premature,game2_startRT,game2_HP_prob,game2_HP_amount,game2_LP_prob,game2_LP_amount,game2_pos,game2_respKey,game2_respRT,game2_choice,game2_outcome,HP_EV,LP_EV,high_EV_option,choose_high_EV,EV_ratio,game1_outcome_num,delay_num,game2_choose_HP
1,45,female,british,exp,3,2,exp,yes,2177,mixed,f,1208,loss,1,837,0.6,10,0.4,40,HP-LP,f,1641,HP,no-win,6,16,LP,no,-0.9090909090909092,0.5,0.5,1
1,45,female,british,exp,3,6,exp,yes,517,mixed,f,654,win,2,745,0.7,20,0.3,30,HP-LP,f,1022,HP,win,14,9,HP,yes,0.43478260869565216,-0.5,0.5,1
1,45,female,british,exp,3,8,exp,no,552,mixed,f,764,loss,0,500,0.8,10,0.2,20,HP-LP,f,761,HP,win,8,4,HP,yes,0.6666666666666666,0.5,-0.5,1
1,45,female,british,exp,3,10,exp,yes,593,mixed,j,710,loss,1,718,0.8,10,0.2,20,LP-HP,j,705,HP,no-win,8,4,HP,yes,0.6666666666666666,0.5,0.5,1
1,45,female,british,exp,3,12,exp,yes,556,mixed,j,687,win,0,515,0.8,20,0.2,30,LP-HP,j,662,HP,win,16,6,HP,yes,0.9090909090909092,-0.5,0.5,1
1,45,female,british,exp,3,14,exp,yes,831,mixed,f,622,win,0,886,0.7,20,0.3,30,LP-HP,j,606,HP,win,14,9,HP,yes,0.43478260869565216,-0.5,0.5,1
1,45,female,british,exp,3,16,exp,yes,1025,mixed,j,485,loss,0,1036,0.7,30,0.3,40,LP-HP,j,860,HP,win,21,12,HP,yes,0.5454545454545454,0.5,0.5,1
1,45,female,british,exp,3,18,exp,no,811,mixed,f,673,loss,0,572,0.7,20,0.3,30,HP-LP,f,379,HP,win,14,9,HP,yes,0.43478260869565216,0.5,-0.5,1
1,45,female,british,exp,3,22,exp,yes,524,mixed,f,531,win,1,510,0.7,30,0.3,40,LP-HP,j,571,HP,no-win,21,12,HP,yes,0.5454545454545454,-0.5,0.5,1
1,45,female,british,exp,3,24,exp,no,1140,mixed,j,936,win,0,966,0.8,10,0.2,20,HP-LP,f,498,HP,win,8,4,HP,yes,0.6666666666666666,-0.5,-0.5,1
1,45,female,british,exp,3,26,exp,yes,464,mixed,j,759,loss,1,979,0.7,10,0.3,50,LP-HP,j,1352,HP,win,7,15,LP,no,-0.7272727272727273,0.5,0.5,1
1,45,female,british,exp,3,28,exp,yes,1633,mixed,f,631,loss,0,1255,0.6,30,0.4,50,LP-HP,f,1523,LP,no-win,18,20,LP,yes,-0.10526315789473684,0.5,0.5,0
1,45,female,british,exp,3,30,exp,no,3389,mixed,j,816,loss,0,550,0.6,40,0.4,50,HP-LP,f,1237,HP,win,24,20,HP,yes,0.18181818181818185,0.5,-0.5,1
1,45,female,british,exp,3,32,exp,no,4301,mixed,f,656,win,0,1065,0.8,20,0.2,30,HP-LP,f,879,HP,win,16,6,HP,yes,0.9090909090909092,-0.5,-0.5,1
1,45,female,british,exp,3,34,exp,no,1093,mixed,j,651,win,0,2766,0.6,40,0.4,50,LP-HP,f,1746,LP,win,24,20,HP,no,0.18181818181818185,-0.5,-0.5,0
1,45,female,british,exp,3,36,exp,no,1391,mixed,f,493,win,0,3413,0.7,30,0.3,40,LP-HP,j,1253,HP,win,21,12,HP,yes,0.5454545454545454,-0.5,-0.5,1
1,45,female,british,exp,3,38,exp,no,499,mixed,f,665,loss,0,586,0.7,10,0.3,30,HP-LP,f,873,HP,win,7,9,LP,no,-0.25,0.5,-0.5,1
1,45,female,british,exp,3,40,exp,no,1340,mixed,j,633,win,0,790,0.7,20,0.3,30,LP-HP,j,967,HP,win,14,9,HP,yes,0.43478260869565216,-0.5,-0.5,1
1,45,female,british,exp,3,44,exp,no,670,mixed,j,693,loss,1,736,0.6,30,0.4,50,HP-LP,f,1287,HP,win,18,20,LP,no,-0.10526315789473684,0.5,-0.5,1
1,45,female,british,exp,3,46,exp,yes,694,mixed,j,701,loss,1,904,0.7,10,0.3,30,HP-LP,f,773,HP,no-win,7,9,LP,no,-0.25,0.5,0.5,1
1,45,female,british,exp,4,2,exp,no,606,mixed,f,622,loss,0,2252,0.7,10,0.3,50,LP-HP,j,1542,HP,win,7,15,LP,no,-0.7272727272727273,0.5,-0.5,1
1,45,female,british,exp,4,4,exp,no,3158,mixed,f,727,loss,0,618,0.6,20,0.4,50,LP-HP,j,1329,HP,no-win,12,20,LP,no,-0.5,0.5,-0.5,1
1,45,female,british,exp,4,8,exp,no,2270,mixed,j,1243,win,0,471,0.8,20,0.2,30,LP-HP,j,1277,HP,win,16,6,HP,yes,0.9090909090909092,-0.5,-0.5,1
1,45,female,british,exp,4,10,exp,yes,388,mixed,f,650,loss,0,467,0.7,30,0.3,40,HP-LP,f,714,HP,win,21,12,HP,yes,0.5454545454545454,0.5,0.5,1
1,45,female,british,exp,4,12,exp,yes,640,mixed,j,751,win,0,609,0.7,10,0.3,30,HP-LP,f,1238,HP,no-win,7,9,LP,no,-0.25,-0.5,0.5,1
1,45,female,british,exp,4,14,exp,no,488,mixed,f,635,win,0,697,0.6,20,0.4,50,HP-LP,f,1577,HP,win,12,20,LP,no,-0.5,-0.5,-0.5,1
1,45,female,british,exp,4,16,exp,yes,280,mixed,j,509,loss,2,293,0.6,10,0.4,40,LP-HP,j,1279,HP,win,6,16,LP,no,-0.9090909090909092,0.5,0.5,1
1,45,female,british,exp,4,18,exp,no,784,mixed,f,584,loss,0,430,0.6,10,0.4,40,LP-HP,j,1469,HP,win,6,16,LP,no,-0.9090909090909092,0.5,-0.5,1
1,45,female,british,exp,4,20,exp,yes,438,mixed,f,558,win,1,218,0.6,20,0.4,50,HP-LP,f,1280,HP,no-win,12,20,LP,no,-0.5,-0.5,0.5,1
1,45,female,british,exp,4,26,exp,yes,555,mixed,f,653,win,2,320,0.8,10,0.2,20,HP-LP,f,918,HP,win,8,4,HP,yes,0.6666666666666666,-0.5,0.5,1
1,45,female,british,exp,4,28,exp,yes,575,mixed,f,617,loss,2,454,0.7,20,0.3,30,HP-LP,f,773,HP,no-win,14,9,HP,yes,0.43478260869565216,0.5,0.5,1
1,45,female,british,exp,4,30,exp,yes,405,mixed,f,566,loss,2,347,0.8,20,0.2,30,LP-HP,j,735,HP,win,16,6,HP,yes,0.9090909090909092,0.5,0.5,1
1,45,female,british,exp,4,32,exp,yes,659,mixed,f,553,win,1,541,0.7,30,0.3,40,HP-LP,f,707,HP,win,21,12,HP,yes,0.5454545454545454,-0.5,0.5,1
1,45,female,british,exp,4,36,exp,no,512,mixed,f,586,win,0,408,0.7,10,0.3,30,LP-HP,j,925,HP,win,7,9,LP,no,-0.25,-0.5,-0.5,1
1,45,female,british,exp,4,38,exp,no,419,mixed,f,457,loss,0,410,0.6,10,0.4,40,HP-LP,f,1096,HP,win,6,16,LP,no,-0.9090909090909092,0.5,-0.5,1
1,45,female,british,exp,4,40,exp,yes,805,mixed,j,444,loss,3,486,0.8,10,0.2,20,HP-LP,f,706,HP,win,8,4,HP,yes,0.6666666666666666,0.5,0.5,1
1,45,female,british,exp,4,42,exp,no,595,mixed,f,683,win,0,343,0.7,30,0.3,40,HP-LP,j,535,LP,no-win,21,12,HP,no,0.5454545454545454,-0.5,-0.5,0
1,45,female,british,exp,4,44,exp,yes,440,mixed,f,569,loss,4,838,0.6,40,0.4,50,LP-HP,j,470,HP,win,24,20,HP,yes,0.18181818181818185,0.5,0.5,1
1,45,female,british,exp,4,46,exp,yes,71939,mixed,j,469,win,0,165,0.6,10,0.4,40,HP-LP,f,1607,HP,no-win,6,16,LP,no,-0.9090909090909092,-0.5,0.5,1
1,45,female,british,exp,4,48,exp,no,4742,mixed,j,3419,loss,0,17993,0.8,20,0.2,30,HP-LP,f,1372,HP,win,16,6,HP,yes,0.9090909090909092,0.5,-0.5,1
1,45,female,british,exp,5,2,exp,no,682,mixed,j,667,loss,0,330,0.6,20,0.4,50,HP-LP,f,1572,HP,win,12,20,LP,no,-0.5,0.5,-0.5,1
1,45,female,british,exp,5,4,exp,yes,2208,mixed,f,627,win,2,1009,0.6,30,0.4,50,LP-HP,j,1791,HP,win,18,20,LP,no,-0.10526315789473684,-0.5,0.5,1
1,45,female,british,exp,5,6,exp,yes,3721,mixed,j,513,loss,0,4698,0.7,10,0.3,50,HP-LP,f,48,HP,no-win,7,15,LP,no,-0.7272727272727273,0.5,0.5,1
1,45,female,british,exp,5,8,exp,yes,670,mixed,j,564,win,1,406,0.6,20,0.4,50,LP-HP,j,1367,HP,no-win,12,20,LP,no,-0.5,-0.5,0.5,1
1,45,female,british,exp,5,10,exp,yes,4781,mixed,j,708,win,3,826,0.8,10,0.2,20,LP-HP,j,687,HP,win,8,4,HP,yes,0.6666666666666666,-0.5,0.5,1
1,45,female,british,exp,5,14,exp,no,477,mixed,j,598,win,0,347,0.8,10,0.2,20,LP-HP,j,720,HP,win,8,4,HP,yes,0.6666666666666666,-0.5,-0.5,1
1,45,female,british,exp,5,16,exp,no,266,mixed,j,1026,win,0,547,0.7,10,0.3,50,HP-LP,f,1230,HP,win,7,15,LP,no,-0.7272727272727273,-0.5,-0.5,1
1,45,female,british,exp,5,18,exp,yes,466,mixed,j,366,loss,1,465,0.6,30,0.4,50,HP-LP,f,895,HP,no-win,18,20,LP,no,-0.10526315789473684,0.5,0.5,1
1,45,female,british,exp,5,22,exp,no,573,mixed,f,715,win,0,306,0.6,10,0.4,40,HP-LP,f,1000,HP,win,6,16,LP,no,-0.9090909090909092,-0.5,-0.5,1
1,45,female,british,exp,5,26,exp,yes,432,mixed,j,416,win,2,305,0.6,10,0.4,40,LP-HP,j,1134,HP,no-win,6,16,LP,no,-0.9090909090909092,-0.5,0.5,1
1,45,female,british,exp,5,28,exp,no,763,mixed,j,524,loss,0,464,0.6,30,0.4,50,LP-HP,j,865,HP,no-win,18,20,LP,no,-0.10526315789473684,0.5,-0.5,1
1,45,female,british,exp,5,30,exp,no,424,mixed,j,559,loss,0,437,0.7,10,0.3,30,LP-HP,j,1110,HP,no-win,7,9,LP,no,-0.25,0.5,-0.5,1
1,45,female,british,exp,5,32,exp,yes,4552,mixed,j,641,loss,0,2827,0.8,20,0.2,30,HP-LP,f,1468,HP,win,16,6,HP,yes,0.9090909090909092,0.5,0.5,1
1,45,female,british,exp,5,34,exp,yes,456,mixed,j,550,win,1,297,0.7,10,0.3,50,LP-HP,j,755,HP,win,7,15,LP,no,-0.7272727272727273,-0.5,0.5,1
1,45,female,british,exp,5,36,exp,no,1123,mixed,j,703,loss,0,450,0.8,10,0.2,20,LP-HP,j,729,HP,win,8,4,HP,yes,0.6666666666666666,0.5,-0.5,1
1,45,female,british,exp,5,38,exp,yes,1329,mixed,j,621,loss,0,437,0.6,40,0.4,50,HP-LP,f,889,HP,win,24,20,HP,yes,0.18181818181818185,0.5,0.5,1
1,45,female,british,exp,5,40,exp,no,745,mixed,j,698,win,0,1345,0.6,20,0.4,50,LP-HP,j,797,HP,win,12,20,LP,no,-0.5,-0.5,-0.5,1
1,45,female,british,exp,5,42,exp,yes,538,mixed,j,538,loss,0,515,0.7,10,0.3,30,LP-HP,j,765,HP,no-win,7,9,LP,no,-0.25,0.5,0.5,1
1,45,female,british,exp,5,46,exp,no,504,mixed,f,693,loss,0,1054,0.8,20,0.2,30,LP-HP,j,706,HP,no-win,16,6,HP,yes,0.9090909090909092,0.5,-0.5,1
1,45,female,british,exp,5,48,exp,yes,448,mixed,j,552,win,0,475,0.8,20,0.2,30,HP-LP,f,745,HP,win,16,6,HP,yes,0.9090909090909092,-0.5,0.5,1
1,45,female,british,exp,6,4,exp,yes,444,mixed,j,528,win,2,567,0.6,40,0.4,50,LP-HP,j,869,HP,no-win,24,20,HP,yes,0.18181818181818185,-0.5,0.5,1
1,45,female,british,exp,6,8,exp,yes,393,mixed,j,647,win,2,528,0.7,10,0.3,50,HP-LP,f,721,HP,win,7,15,LP,no,-0.7272727272727273,-0.5,0.5,1
1,45,female,british,exp,6,10,exp,no,467,mixed,f,797,win,0,371,0.7,20,0.3,30,HP-LP,f,706,HP,win,14,9,HP,yes,0.43478260869565216,-0.5,-0.5,1
1,45,female,british,exp,6,12,exp,no,397,mixed,f,630,win,0,298,0.6,10,0.4,40,LP-HP,j,708,HP,win,6,16,LP,no,-0.9090909090909092,-0.5,-0.5,1
1,45,female,british,exp,6,14,exp,no,366,mixed,f,605,loss,0,362,0.7,30,0.3,40,HP-LP,f,674,HP,win,21,12,HP,yes,0.5454545454545454,0.5,-0.5,1
1,45,female,british,exp,6,16,exp,no,341,mixed,j,542,win,0,496,0.6,40,0.4,50,HP-LP,f,383,HP,no-win,24,20,HP,yes,0.18181818181818185,-0.5,-0.5,1
1,45,female,british,exp,6,18,exp,no,435,mixed,f,547,loss,0,661,0.7,30,0.3,40,LP-HP,j,843,HP,win,21,12,HP,yes,0.5454545454545454,0.5,-0.5,1
1,45,female,british,exp,6,22,exp,no,7880,mixed,j,388,loss,0,1420,0.6,40,0.4,50,LP-HP,f,423,LP,win,24,20,HP,no,0.18181818181818185,0.5,-0.5,0
1,45,female,british,exp,6,24,exp,yes,796,mixed,j,557,loss,1,343,0.6,20,0.4,50,HP-LP,j,346,LP,no-win,12,20,LP,yes,-0.5,0.5,0.5,0
1,45,female,british,exp,6,26,exp,yes,484,mixed,f,562,win,1,394,0.7,10,0.3,30,LP-HP,j,658,HP,no-win,7,9,LP,no,-0.25,-0.5,0.5,1
1,45,female,british,exp,6,28,exp,no,2521,mixed,j,666,loss,0,4053,0.7,10,0.3,50,HP-LP,f,789,HP,no-win,7,15,LP,no,-0.7272727272727273,0.5,-0.5,1
1,45,female,british,exp,6,30,exp,no,453,mixed,j,737,win,0,1113,0.7,10,0.3,50,LP-HP,j,619,HP,win,7,15,LP,no,-0.7272727272727273,-0.5,-0.5,1
1,45,female,british,exp,6,32,exp,yes,821,mixed,f,579,loss,0,432,0.7,20,0.3,30,LP-HP,j,689,HP,win,14,9,HP,yes,0.43478260869565216,0.5,0.5,1
1,45,female,british,exp,6,34,exp,no,681,mixed,f,583,win,0,449,0.6,30,0.4,50,HP-LP,f,779,HP,no-win,18,20,LP,no,-0.10526315789473684,-0.5,-0.5,1
1,45,female,british,exp,6,36,exp,yes,708,mixed,f,576,loss,1,410,0.6,20,0.4,50,LP-HP,j,314,HP,win,12,20,LP,no,-0.5,0.5,0.5,1
1,45,female,british,exp,6,40,exp,no,484,mixed,f,425,loss,0,660,0.7,20,0.3,30,LP-HP,j,406,HP,win,14,9,HP,yes,0.43478260869565216,0.5,-0.5,1
1,45,female,british,exp,6,42,exp,yes,445,mixed,f,557,win,1,351,0.6,40,0.4,50,HP-LP,f,742,HP,win,24,20,HP,yes,0.18181818181818185,-0.5,0.5,1
1,45,female,british,exp,6,46,exp,yes,524,mixed,j,560,win,1,347,0.6,30,0.4,50,HP-LP,f,614,HP,win,18,20,LP,no,-0.10526315789473684,-0.5,0.5,1
1,45,female,british,exp,6,48,exp,no,414,mixed,j,601,win,0,461,0.7,10,0.3,30,HP-LP,f,441,HP,no-win,7,9,LP,no,-0.25,-0.5,-0.5,1
1,45,female,british,exp,6,50,exp,no,468,mixed,j,497,win,0,419,0.6,30,0.4,50,LP-HP,f,939,LP,win,18,20,LP,yes,-0.10526315789473684,-0.5,-0.5,0
10,27,male,Polish,exp,3,2,exp,yes,1340,mixed,f,1284,loss,0,713,0.7,30,0.3,40,LP-HP,f,480,LP,win,21,12,HP,no,0.5454545454545454,0.5,0.5,0
10,27,male,Polish,exp,3,6,exp,yes,750,mixed,j,1050,win,0,1193,0.7,20,0.3,30,HP-LP,f,1369,HP,win,14,9,HP,yes,0.43478260869565216,-0.5,0.5,1
10,27,male,Polish,exp,3,8,exp,yes,920,mixed,f,753,win,0,1053,0.8,10,0.2,20,HP-LP,f,1061,HP,win,8,4,HP,yes,0.6666666666666666,-0.5,0.5,1
10,27,male,Polish,exp,3,10,exp,no,2243,mixed,j,1100,win,0,2054,0.6,30,0.4,50,LP-HP,f,1157,LP,no-win,18,20,LP,yes,-0.10526315789473684,-0.5,-0.5,0
10,27,male,Polish,exp,3,12,exp,no,1132,mixed,f,1141,win,0,1557,0.7,10,0.3,50,HP-LP,j,2755,LP,no-win,7,15,LP,yes,-0.7272727272727273,-0.5,-0.5,0
10,27,male,Polish,exp,3,14,exp,yes,1582,mixed,j,873,win,0,706,0.6,40,0.4,50,HP-LP,j,1734,LP,win,24,20,HP,no,0.18181818181818185,-0.5,0.5,0
10,27,male,Polish,exp,3,16,exp,yes,1286,mixed,j,958,win,0,497,0.8,20,0.2,30,LP-HP,j,850,HP,win,16,6,HP,yes,0.9090909090909092,-0.5,0.5,1
10,27,male,Polish,exp,3,18,exp,no,1397,mixed,f,565,win,0,1815,0.6,20,0.4,50,HP-LP,j,1443,LP,win,12,20,LP,yes,-0.5,-0.5,-0.5,0
10,27,male,Polish,exp,3,20,exp,yes,2042,mixed,j,1124,loss,0,533,0.7,10,0.3,30,LP-HP,j,999,HP,win,7,9,LP,no,-0.25,0.5,0.5,1
10,27,male,Polish,exp,3,24,exp,no,1297,mixed,f,565,win,0,1941,0.7,10,0.3,30,HP-LP,f,1455,HP,win,7,9,LP,no,-0.25,-0.5,-0.5,1
10,27,male,Polish,exp,3,26,exp,yes,596,mixed,j,399,win,0,360,0.6,30,0.4,50,HP-LP,j,1072,LP,no-win,18,20,LP,yes,-0.10526315789473684,-0.5,0.5,0
10,27,male,Polish,exp,3,28,exp,no,557,mixed,j,348,win,0,1284,0.7,20,0.3,30,HP-LP,f,1027,HP,win,14,9,HP,yes,0.43478260869565216,-0.5,-0.5,1
10,27,male,Polish,exp,3,30,exp,yes,869,mixed,f,890,win,0,731,0.7,10,0.3,50,HP-LP,j,1288,LP,no-win,7,15,LP,yes,-0.7272727272727273,-0.5,0.5,0
10,27,male,Polish,exp,3,36,exp,yes,693,mixed,j,1449,loss,0,2006,0.6,20,0.4,50,HP-LP,j,1512,LP,win,12,20,LP,yes,-0.5,0.5,0.5,0
10,27,male,Polish,exp,3,38,exp,yes,781,mixed,j,529,loss,0,641,0.8,10,0.2,20,HP-LP,f,815,HP,win,8,4,HP,yes,0.6666666666666666,0.5,0.5,1
10,27,male,Polish,exp,3,40,exp,no,689,mixed,j,354,loss,0,958,0.8,10,0.2,20,HP-LP,f,1061,HP,win,8,4,HP,yes,0.6666666666666666,0.5,-0.5,1
10,27,male,Polish,exp,3,42,exp,no,1193,mixed,j,375,win,0,1404,0.6,10,0.4,40,HP-LP,j,1175,LP,win,6,16,LP,yes,-0.9090909090909092,-0.5,-0.5,0
10,27,male,Polish,exp,3,44,exp,no,608,mixed,f,753,loss,0,1211,0.7,20,0.3,30,HP-LP,f,1199,HP,win,14,9,HP,yes,0.43478260869565216,0.5,-0.5,1
10,27,male,Polish,exp,3,46,exp,yes,616,mixed,f,433,win,0,1133,0.8,10,0.2,20,LP-HP,j,878,HP,win,8,4,HP,yes,0.6666666666666666,-0.5,0.5,1
10,27,male,Polish,exp,3,48,exp,yes,887,mixed,f,1015,win,0,666,0.6,20,0.4,50,LP-HP,f,1311,LP,no-win,12,20,LP,yes,-0.5,-0.5,0.5,0
10,27,male,Polish,exp,4,4,exp,yes,613,mixed,f,1096,win,0,867,0.7,10,0.3,30,HP-LP,f,1170,HP,no-win,7,9,LP,no,-0.25,-0.5,0.5,1
10,27,male,Polish,exp,4,8,exp,no,677,mixed,j,297,win,0,541,0.8,20,0.2,30,HP-LP,f,1141,HP,no-win,16,6,HP,yes,0.9090909090909092,-0.5,-0.5,1
10,27,male,Polish,exp,4,10,exp,no,544,mixed,j,382,loss,0,836,0.6,20,0.4,50,HP-LP,j,1398,LP,no-win,12,20,LP,yes,-0.5,0.5,-0.5,0
10,27,male,Polish,exp,4,12,exp,no,418,mixed,j,364,win,0,769,0.6,30,0.4,50,HP-LP,j,1306,LP,no-win,18,20,LP,yes,-0.10526315789473684,-0.5,-0.5,0
10,27,male,Polish,exp,4,16,exp,no,463,mixed,f,267,loss,0,517,0.7,30,0.3,40,LP-HP,j,946,HP,no-win,21,12,HP,yes,0.5454545454545454,0.5,-0.5,1
10,27,male,Polish,exp,4,18,exp,yes,489,mixed,f,188,loss,0,594,0.7,20,0.3,30,HP-LP,f,878,HP,win,14,9,HP,yes,0.43478260869565216,0.5,0.5,1
10,27,male,Polish,exp,4,20,exp,no,594,mixed,f,1101,win,0,599,0.6,40,0.4,50,HP-LP,f,1341,HP,win,24,20,HP,yes,0.18181818181818185,-0.5,-0.5,1
10,27,male,Polish,exp,4,22,exp,yes,1544,mixed,j,381,win,0,421,0.7,30,0.3,40,LP-HP,j,667,HP,no-win,21,12,HP,yes,0.5454545454545454,-0.5,0.5,1
10,27,male,Polish,exp,4,24,exp,yes,590,mixed,j,280,loss,0,470,0.6,10,0.4,40,LP-HP,f,1050,LP,win,6,16,LP,yes,-0.9090909090909092,0.5,0.5,0
10,27,male,Polish,exp,4,26,exp,yes,592,mixed,j,301,win,0,521,0.6,20,0.4,50,HP-LP,j,861,LP,win,12,20,LP,yes,-0.5,-0.5,0.5,0
10,27,male,Polish,exp,4,28,exp,no,681,mixed,f,309,win,0,1394,0.7,30,0.3,40,HP-LP,f,947,HP,win,21,12,HP,yes,0.5454545454545454,-0.5,-0.5,1
10,27,male,Polish,exp,4,30,exp,yes,483,mixed,j,798,win,0,555,0.7,10,0.3,50,LP-HP,j,1176,HP,no-win,7,15,LP,no,-0.7272727272727273,-0.5,0.5,1
10,27,male,Polish,exp,4,32,exp,no,388,mixed,f,330,loss,0,1459,0.6,40,0.4,50,HP-LP,j,1249,LP,no-win,24,20,HP,no,0.18181818181818185,0.5,-0.5,0
10,27,male,Polish,exp,4,34,exp,yes,580,mixed,j,480,win,0,567,0.7,30,0.3,40,HP-LP,f,816,HP,win,21,12,HP,yes,0.5454545454545454,-0.5,0.5,1
10,27,male,Polish,exp,4,36,exp,yes,416,mixed,f,832,win,0,343,0.6,40,0.4,50,LP-HP,j,1946,HP,win,24,20,HP,yes,0.18181818181818185,-0.5,0.5,1
10,27,male,Polish,exp,4,38,exp,no,861,mixed,j,639,loss,0,2869,0.8,20,0.2,30,LP-HP,j,616,HP,win,16,6,HP,yes,0.9090909090909092,0.5,-0.5,1
10,27,male,Polish,exp,4,40,exp,yes,516,mixed,j,536,loss,0,443,0.6,30,0.4,50,LP-HP,f,993,LP,no-win,18,20,LP,yes,-0.10526315789473684,0.5,0.5,0
10,27,male,Polish,exp,4,44,exp,no,433,mixed,f,336,loss,0,607,0.6,30,0.4,50,LP-HP,j,1808,HP,win,18,20,LP,no,-0.10526315789473684,0.5,-0.5,1
10,27,male,Polish,exp,4,46,exp,no,367,mixed,f,326,win,0,502,0.6,40,0.4,50,LP-HP,j,1632,HP,win,24,20,HP,yes,0.18181818181818185,-0.5,-0.5,1
10,27,male,Polish,exp,4,50,exp,no,246,mixed,j,268,loss,0,1640,0.7,10,0.3,50,HP-LP,j,1319,LP,no-win,7,15,LP,yes,-0.7272727272727273,0.5,-0.5,0
10,27,male,Polish,exp,5,2,exp,yes,1739,mixed,f,788,loss,0,691,0.7,30,0.3,40,HP-LP,f,1072,HP,win,21,12,HP,yes,0.5454545454545454,0.5,0.5,1
10,27,male,Polish,exp,5,4,exp,no,371,mixed,f,286,win,0,659,0.6,10,0.4,40,LP-HP,f,1084,LP,no-win,6,16,LP,yes,-0.9090909090909092,-0.5,-0.5,0
10,27,male,Polish,exp,5,8,exp,no,328,mixed,j,251,loss,0,727,0.8,20,0.2,30,HP-LP,f,1403,HP,win,16,6,HP,yes,0.9090909090909092,0.5,-0.5,1
10,27,male,Polish,exp,5,10,exp,no,325,mixed,j,285,loss,0,406,0.6,20,0.4,50,LP-HP,f,1296,LP,win,12,20,LP,yes,-0.5,0.5,-0.5,0
10,27,male,Polish,exp,5,12,exp,no,329,mixed,j,257,win,0,410,0.7,10,0.3,30,LP-HP,j,799,HP,win,7,9,LP,no,-0.25,-0.5,-0.5,1
10,27,male,Polish,exp,5,14,exp,yes,312,mixed,f,256,loss,0,344,0.6,40,0.4,50,HP-LP,f,1027,HP,win,24,20,HP,yes,0.18181818181818185,0.5,0.5,1
10,27,male,Polish,exp,5,16,exp,yes,556,mixed,j,684,loss,0,426,0.7,10,0.3,50,HP-LP,j,1324,LP,win,7,15,LP,yes,-0.7272727272727273,0.5,0.5,0
10,27,male,Polish,exp,5,18,exp,no,721,mixed,j,244,loss,0,1549,0.6,10,0.4,40,HP-LP,j,1278,LP,win,6,16,LP,yes,-0.9090909090909092,0.5,-0.5,0
10,27,male,Polish,exp,5,20,exp,no,762,mixed,j,313,loss,0,1043,0.6,30,0.4,50,HP-LP,f,1661,HP,win,18,20,LP,no,-0.10526315789473684,0.5,-0.5,1
10,27,male,Polish,exp,5,22,exp,no,378,mixed,j,215,win,0,527,0.8,20,0.2,30,LP-HP,j,885,HP,win,16,6,HP,yes,0.9090909090909092,-0.5,-0.5,1
10,27,male,Polish,exp,5,24,exp,yes,319,mixed,f,251,loss,0,325,0.6,20,0.4,50,LP-HP,f,1033,LP,win,12,20,LP,yes,-0.5,0.5,0.5,0
10,27,male,Polish,exp,5,28,exp,yes,304,mixed,j,217,win,1,480,0.7,10,0.3,30,LP-HP,j,729,HP,win,7,9,LP,no,-0.25,-0.5,0.5,1
10,27,male,Polish,exp,5,30,exp,no,339,mixed,f,262,win,0,484,0.7,20,0.3,30,LP-HP,j,981,HP,win,14,9,HP,yes,0.43478260869565216,-0.5,-0.5,1
10,27,male,Polish,exp,5,32,exp,yes,306,mixed,f,269,win,0,465,0.6,10,0.4,40,HP-LP,j,884,LP,no-win,6,16,LP,yes,-0.9090909090909092,-0.5,0.5,0
10,27,male,Polish,exp,5,34,exp,yes,1207,mixed,j,274,loss,0,439,0.7,10,0.3,30,HP-LP,f,1391,HP,win,7,9,LP,no,-0.25,0.5,0.5,1
10,27,male,Polish,exp,5,36,exp,no,326,mixed,j,234,loss,0,527,0.7,20,0.3,30,LP-HP,j,1147,HP,win,14,9,HP,yes,0.43478260869565216,0.5,-0.5,1
10,27,male,Polish,exp,5,40,exp,yes,257,mixed,f,240,loss,0,396,0.7,10,0.3,50,LP-HP,j,1117,HP,no-win,7,15,LP,no,-0.7272727272727273,0.5,0.5,1
10,27,male,Polish,exp,5,42,exp,yes,429,mixed,f,240,loss,0,392,0.8,20,0.2,30,HP-LP,f,810,HP,win,16,6,HP,yes,0.9090909090909092,0.5,0.5,1
10,27,male,Polish,exp,5,46,exp,yes,257,mixed,f,256,loss,0,469,0.7,20,0.3,30,LP-HP,j,513,HP,win,14,9,HP,yes,0.43478260869565216,0.5,0.5,1
10,27,male,Polish,exp,5,48,exp,no,425,mixed,f,650,loss,0,512,0.7,10,0.3,50,LP-HP,f,811,LP,no-win,7,15,LP,yes,-0.7272727272727273,0.5,-0.5,0
10,27,male,Polish,exp,6,2,exp,no,633,mixed,j,816,win,0,504,0.7,10,0.3,50,LP-HP,j,1037,HP,win,7,15,LP,no,-0.7272727272727273,-0.5,-0.5,1
10,27,male,Polish,exp,6,4,exp,yes,463,mixed,j,577,loss,1,516,0.8,10,0.2,20,LP-HP,j,627,HP,no-win,8,4,HP,yes,0.6666666666666666,0.5,0.5,1
10,27,male,Polish,exp,6,12,exp,yes,371,mixed,j,240,loss,1,311,0.6,40,0.4,50,LP-HP,j,1061,HP,win,24,20,HP,yes,0.18181818181818185,0.5,0.5,1
10,27,male,Polish,exp,6,14,exp,no,312,mixed,j,291,win,0,396,0.7,30,0.3,40,LP-HP,j,1015,HP,no-win,21,12,HP,yes,0.5454545454545454,-0.5,-0.5,1
10,27,male,Polish,exp,6,16,exp,yes,825,mixed,j,376,loss,1,763,0.8,20,0.2,30,LP-HP,j,786,HP,no-win,16,6,HP,yes,0.9090909090909092,0.5,0.5,1
10,27,male,Polish,exp,6,18,exp,no,477,mixed,f,398,loss,0,792,0.7,10,0.3,30,LP-HP,j,924,HP,win,7,9,LP,no,-0.25,0.5,-0.5,1
10,27,male,Polish,exp,6,20,exp,yes,280,mixed,f,240,loss,1,795,0.6,10,0.4,40,HP-LP,j,1672,LP,win,6,16,LP,yes,-0.9090909090909092,0.5,0.5,0
10,27,male,Polish,exp,6,22,exp,no,260,mixed,f,297,win,0,416,0.6,20,0.4,50,LP-HP,f,918,LP,no-win,12,20,LP,yes,-0.5,-0.5,-0.5,0
10,27,male,Polish,exp,6,26,exp,yes,253,mixed,j,303,win,1,425,0.8,20,0.2,30,HP-LP,f,815,HP,win,16,6,HP,yes,0.9090909090909092,-0.5,0.5,1
10,27,male,Polish,exp,6,30,exp,yes,280,mixed,j,210,loss,0,402,0.6,30,0.4,50,HP-LP,j,1056,LP,win,18,20,LP,yes,-0.10526315789473684,0.5,0.5,0
10,27,male,Polish,exp,6,32,exp,no,349,mixed,f,274,loss,0,499,0.7,30,0.3,40,HP-LP,f,837,HP,win,21,12,HP,yes,0.5454545454545454,0.5,-0.5,1
10,27,male,Polish,exp,6,34,exp,no,348,mixed,f,348,loss,0,452,0.6,10,0.4,40,LP-HP,f,1210,LP,no-win,6,16,LP,yes,-0.9090909090909092,0.5,-0.5,0
10,27,male,Polish,exp,6,36,exp,no,299,mixed,f,205,win,0,826,0.8,10,0.2,20,LP-HP,j,514,HP,win,8,4,HP,yes,0.6666666666666666,-0.5,-0.5,1
10,27,male,Polish,exp,6,38,exp,yes,251,mixed,j,195,win,1,265,0.6,30,0.4,50,LP-HP,j,1403,HP,win,18,20,LP,no,-0.10526315789473684,-0.5,0.5,1
10,27,male,Polish,exp,6,40,exp,no,268,mixed,j,239,loss,0,544,0.6,40,0.4,50,LP-HP,j,1175,HP,win,24,20,HP,yes,0.18181818181818185,0.5,-0.5,1
10,27,male,Polish,exp,6,42,exp,yes,279,mixed,j,222,win,0,481,0.7,20,0.3,30,LP-HP,j,883,HP,win,14,9,HP,yes,0.43478260869565216,-0.5,0.5,1
10,27,male,Polish,exp,6,44,exp,no,269,mixed,j,290,win,0,497,0.8,10,0.2,20,HP-LP,f,598,HP,win,8,4,HP,yes,0.6666666666666666,-0.5,-0.5,1
10,27,male,Polish,exp,6,46,exp,no,306,mixed,f,216,loss,0,363,0.8,10,0.2,20,LP-HP,j,725,HP,win,8,4,HP,yes,0.6666666666666666,0.5,-0.5,1
10,27,male,Polish,exp,6,48,exp,no,357,mixed,j,239,loss,0,349,0.7,10,0.3,30,HP-LP,f,1386,HP,win,7,9,LP,no,-0.25,0.5,-0.5,1
10,27,male,Polish,exp,6,50,exp,yes,286,mixed,j,342,win,0,1113,0.6,10,0.4,40,LP-HP,f,1203,LP,win,6,16,LP,yes,-0.9090909090909092,-0.5,0.5,0
11,32,female,welsh,exp,3,4,exp,yes,745,mixed,f,1170,win,0,905,0.6,30,0.4,50,HP-LP,j,2452,LP,no-win,18,20,LP,yes,-0.10526315789473684,-0.5,0.5,0
11,32,female,welsh,exp,3,6,exp,no,568,mixed,j,1296,loss,0,798,0.6,40,0.4,50,LP-HP,j,928,HP,win,24,20,HP,yes,0.18181818181818185,0.5,-0.5,1
11,32,female,welsh,exp,3,12,exp,yes,926,mixed,j,1843,loss,1,406,0.7,20,0.3,30,LP-HP,j,866,HP,win,14,9,HP,yes,0.43478260869565216,0.5,0.5,1
11,32,female,welsh,exp,3,14,exp,no,710,mixed,j,1224,loss,0,842,0.7,10,0.3,50,HP-LP,f,1253,HP,no-win,7,15,LP,no,-0.7272727272727273,0.5,-0.5,1
11,32,female,welsh,exp,3,18,exp,yes,620,mixed,f,1528,win,0,630,0.8,10,0.2,20,HP-LP,f,1286,HP,win,8,4,HP,yes,0.6666666666666666,-0.5,0.5,1
11,32,female,welsh,exp,3,20,exp,no,1235,mixed,j,2113,win,0,773,0.8,20,0.2,30,LP-HP,f,1813,LP,no-win,16,6,HP,no,0.9090909090909092,-0.5,-0.5,0
11,32,female,welsh,exp,3,22,exp,yes,663,mixed,j,4162,win,0,754,0.6,30,0.4,50,LP-HP,j,1510,HP,win,18,20,LP,no,-0.10526315789473684,-0.5,0.5,1
11,32,female,welsh,exp,3,24,exp,no,569,mixed,f,1656,loss,0,443,0.6,20,0.4,50,LP-HP,j,770,HP,win,12,20,LP,no,-0.5,0.5,-0.5,1
11,32,female,welsh,exp,3,26,exp,yes,553,mixed,j,1491,loss,0,420,0.7,10,0.3,50,HP-LP,f,861,HP,no-win,7,15,LP,no,-0.7272727272727273,0.5,0.5,1
11,32,female,welsh,exp,3,30,exp,yes,645,mixed,j,930,loss,1,435,0.7,10,0.3,30,HP-LP,f,823,HP,win,7,9,LP,no,-0.25,0.5,0.5,1
11,32,female,welsh,exp,3,32,exp,yes,430,mixed,f,1041,win,0,732,0.7,10,0.3,50,HP-LP,f,844,HP,win,7,15,LP,no,-0.7272727272727273,-0.5,0.5,1
11,32,female,welsh,exp,3,34,exp,no,471,mixed,f,1244,win,0,587,0.6,40,0.4,50,LP-HP,j,1167,HP,win,24,20,HP,yes,0.18181818181818185,-0.5,-0.5,1
11,32,female,welsh,exp,3,36,exp,no,609,mixed,f,2295,win,0,397,0.8,20,0.2,30,HP-LP,f,833,HP,win,16,6,HP,yes,0.9090909090909092,-0.5,-0.5,1
11,32,female,welsh,exp,3,38,exp,no,319,mixed,j,2361,loss,0,1872,0.7,30,0.3,40,LP-HP,j,679,HP,win,21,12,HP,yes,0.5454545454545454,0.5,-0.5,1
11,32,female,welsh,exp,3,40,exp,yes,276,mixed,f,1123,loss,0,554,0.6,40,0.4,50,LP-HP,j,698,HP,win,24,20,HP,yes,0.18181818181818185,0.5,0.5,1
11,32,female,welsh,exp,3,42,exp,yes,386,mixed,f,1319,loss,1,376,0.7,10,0.3,30,LP-HP,j,705,HP,no-win,7,9,LP,no,-0.25,0.5,0.5,1
11,32,female,welsh,exp,3,44,exp,yes,536,mixed,j,1238,win,0,585,0.6,20,0.4,50,HP-LP,f,1248,HP,win,12,20,LP,no,-0.5,-0.5,0.5,1
11,32,female,welsh,exp,3,46,exp,yes,778,mixed,f,2372,win,0,852,0.8,10,0.2,20,LP-HP,j,1226,HP,no-win,8,4,HP,yes,0.6666666666666666,-0.5,0.5,1
11,32,female,welsh,exp,3,48,exp,yes,532,mixed,f,1409,win,0,536,0.7,10,0.3,30,HP-LP,f,682,HP,no-win,7,9,LP,no,-0.25,-0.5,0.5,1
11,32,female,welsh,exp,3,50,exp,no,545,mixed,f,1594,win,0,389,0.7,10,0.3,30,HP-LP,j,1223,LP,win,7,9,LP,yes,-0.25,-0.5,-0.5,0
11,32,female,welsh,exp,4,4,exp,no,1395,mixed,f,5842,win,0,4257,0.6,30,0.4,50,LP-HP,f,1468,LP,no-win,18,20,LP,yes,-0.10526315789473684,-0.5,-0.5,0
11,32,female,welsh,exp,4,6,exp,yes,1796,mixed,j,1661,win,0,957,0.6,10,0.4,40,HP-LP,f,1047,HP,win,6,16,LP,no,-0.9090909090909092,-0.5,0.5,1
11,32,female,welsh,exp,4,10,exp,no,924,mixed,f,875,loss,0,716,0.6,40,0.4,50,HP-LP,f,1207,HP,win,24,20,HP,yes,0.18181818181818185,0.5,-0.5,1
11,32,female,welsh,exp,4,12,exp,no,659,mixed,j,1410,loss,0,605,0.6,30,0.4,50,LP-HP,j,1221,HP,win,18,20,LP,no,-0.10526315789473684,0.5,-0.5,1
11,32,female,welsh,exp,4,14,exp,yes,736,mixed,f,492,win,0,1268,0.7,20,0.3,30,LP-HP,j,1840,HP,win,14,9,HP,yes,0.43478260869565216,-0.5,0.5,1
11,32,female,welsh,exp,4,16,exp,no,815,mixed,f,1401,loss,0,837,0.7,30,0.3,40,HP-LP,f,1051,HP,win,21,12,HP,yes,0.5454545454545454,0.5,-0.5,1
11,32,female,welsh,exp,4,18,exp,no,1105,mixed,j,1587,win,0,792,0.6,20,0.4,50,HP-LP,f,910,HP,win,12,20,LP,no,-0.5,-0.5,-0.5,1
11,32,female,welsh,exp,4,20,exp,no,988,mixed,f,704,win,0,749,0.7,20,0.3,30,HP-LP,f,738,HP,win,14,9,HP,yes,0.43478260869565216,-0.5,-0.5,1
11,32,female,welsh,exp,4,22,exp,yes,737,mixed,f,883,loss,1,1776,0.7,20,0.3,30,HP-LP,f,824,HP,win,14,9,HP,yes,0.43478260869565216,0.5,0.5,1
11,32,female,welsh,exp,4,24,exp,no,778,mixed,f,690,win,0,549,0.6,10,0.4,40,LP-HP,j,915,HP,win,6,16,LP,no,-0.9090909090909092,-0.5,-0.5,1
11,32,female,welsh,exp,4,26,exp,no,784,mixed,f,649,win,0,765,0.7,30,0.3,40,LP-HP,j,796,HP,win,21,12,HP,yes,0.5454545454545454,-0.5,-0.5,1
11,32,female,welsh,exp,4,28,exp,no,1230,mixed,f,999,loss,0,880,0.7,10,0.3,30,LP-HP,j,1107,HP,win,7,9,LP,no,-0.25,0.5,-0.5,1
11,32,female,welsh,exp,4,32,exp,yes,510,mixed,f,1140,win,1,1031,0.8,20,0.2,30,LP-HP,j,1084,HP,win,16,6,HP,yes,0.9090909090909092,-0.5,0.5,1
11,32,female,welsh,exp,4,34,exp,yes,835,mixed,f,810,loss,0,719,0.8,20,0.2,30,LP-HP,j,674,HP,win,16,6,HP,yes,0.9090909090909092,0.5,0.5,1
11,32,female,welsh,exp,4,36,exp,no,1201,mixed,f,799,win,0,900,0.7,10,0.3,50,LP-HP,j,1119,HP,win,7,15,LP,no,-0.7272727272727273,-0.5,-0.5,1
11,32,female,welsh,exp,4,38,exp,yes,985,mixed,f,627,loss,1,661,0.7,10,0.3,50,LP-HP,j,942,HP,win,7,15,LP,no,-0.7272727272727273,0.5,0.5,1
11,32,female,welsh,exp,4,42,exp,no,846,mixed,j,954,win,0,824,0.6,40,0.4,50,HP-LP,j,1826,LP,no-win,24,20,HP,no,0.18181818181818185,-0.5,-0.5,0
11,32,female,welsh,exp,4,44,exp,yes,976,mixed,f,790,win,0,1424,0.7,10,0.3,50,LP-HP,j,757,HP,win,7,15,LP,no,-0.7272727272727273,-0.5,0.5,1
11,32,female,welsh,exp,4,46,exp,yes,1256,mixed,f,1647,loss,0,591,0.6,20,0.4,50,HP-LP,f,1148,HP,no-win,12,20,LP,no,-0.5,0.5,0.5,1
11,32,female,welsh,exp,4,50,exp,no,970,mixed,f,4756,loss,0,877,0.8,10,0.2,20,LP-HP,f,3003,LP,no-win,8,4,HP,no,0.6666666666666666,0.5,-0.5,0
11,32,female,welsh,exp,5,2,exp,yes,1565,mixed,f,932,loss,0,821,0.6,10,0.4,40,HP-LP,f,1789,HP,no-win,6,16,LP,no,-0.9090909090909092,0.5,0.5,1
11,32,female,welsh,exp,5,6,exp,yes,704,mixed,j,1411,win,0,899,0.7,20,0.3,30,HP-LP,f,1273,HP,win,14,9,HP,yes,0.43478260869565216,-0.5,0.5,1
11,32,female,welsh,exp,5,8,exp,yes,948,mixed,j,688,win,0,537,0.7,30,0.3,40,LP-HP,f,1476,LP,no-win,21,12,HP,no,0.5454545454545454,-0.5,0.5,0
11,32,female,welsh,exp,5,10,exp,no,780,mixed,j,986,loss,0,767,0.7,10,0.3,30,HP-LP,f,899,HP,win,7,9,LP,no,-0.25,0.5,-0.5,1
11,32,female,welsh,exp,5,12,exp,no,743,mixed,j,2730,win,0,1071,0.7,30,0.3,40,HP-LP,f,1116,HP,no-win,21,12,HP,yes,0.5454545454545454,-0.5,-0.5,1
11,32,female,welsh,exp,5,16,exp,no,601,mixed,f,747,win,0,925,0.6,30,0.4,50,HP-LP,f,934,HP,win,18,20,LP,no,-0.10526315789473684,-0.5,-0.5,1
11,32,female,welsh,exp,5,20,exp,yes,853,mixed,f,862,loss,0,1632,0.6,40,0.4,50,HP-LP,f,1352,HP,no-win,24,20,HP,yes,0.18181818181818185,0.5,0.5,1
11,32,female,welsh,exp,5,22,exp,no,916,mixed,j,923,loss,0,3702,0.6,30,0.4,50,HP-LP,f,1117,HP,no-win,18,20,LP,no,-0.10526315789473684,0.5,-0.5,1
11,32,female,welsh,exp,5,24,exp,no,772,mixed,j,1974,win,0,1251,0.8,10,0.2,20,LP-HP,j,1269,HP,win,8,4,HP,yes,0.6666666666666666,-0.5,-0.5,1
11,32,female,welsh,exp,5,26,exp,yes,1721,mixed,f,1134,win,0,852,0.8,20,0.2,30,HP-LP,f,1256,HP,win,16,6,HP,yes,0.9090909090909092,-0.5,0.5,1
11,32,female,welsh,exp,5,30,exp,no,805,mixed,f,915,loss,0,766,0.8,10,0.2,20,HP-LP,f,1058,HP,no-win,8,4,HP,yes,0.6666666666666666,0.5,-0.5,1
11,32,female,welsh,exp,5,32,exp,yes,1149,mixed,j,1102,win,0,775,0.7,10,0.3,30,LP-HP,j,966,HP,no-win,7,9,LP,no,-0.25,-0.5,0.5,1
11,32,female,welsh,exp,5,36,exp,no,958,mixed,f,1386,win,0,807,0.6,10,0.4,40,HP-LP,f,866,HP,win,6,16,LP,no,-0.9090909090909092,-0.5,-0.5,1
11,32,female,welsh,exp,5,38,exp,no,736,mixed,j,789,win,0,1115,0.7,20,0.3,30,LP-HP,j,1230,HP,no-win,14,9,HP,yes,0.43478260869565216,-0.5,-0.5,1
11,32,female,welsh,exp,5,40,exp,no,907,mixed,f,1145,loss,0,748,0.8,20,0.2,30,LP-HP,j,1294,HP,win,16,6,HP,yes,0.9090909090909092,0.5,-0.5,1
11,32,female,welsh,exp,5,42,exp,no,1883,mixed,f,1396,win,0,728,0.8,10,0.2,20,HP-LP,f,1579,HP,win,8,4,HP,yes,0.6666666666666666,-0.5,-0.5,1
11,32,female,welsh,exp,5,44,exp,yes,879,mixed,j,984,loss,0,765,0.6,30,0.4,50,HP-LP,f,976,HP,no-win,18,20,LP,no,-0.10526315789473684,0.5,0.5,1
11,32,female,welsh,exp,5,46,exp,yes,945,mixed,f,2467,loss,0,842,0.6,20,0.4,50,LP-HP,j,986,HP,win,12,20,LP,no,-0.5,0.5,0.5,1
11,32,female,welsh,exp,5,48,exp,yes,983,mixed,f,1358,loss,0,672,0.8,20,0.2,30,HP-LP,f,1061,HP,win,16,6,HP,yes,0.9090909090909092,0.5,0.5,1
11,32,female,welsh,exp,5,50,exp,yes,907,mixed,j,1029,loss,0,1040,0.7,30,0.3,40,HP-LP,f,1047,HP,no-win,21,12,HP,yes,0.5454545454545454,0.5,0.5,1
11,32,female,welsh,exp,6,2,exp,no,2158,mixed,f,951,loss,0,1618,0.7,20,0.3,30,LP-HP,j,1139,HP,win,14,9,HP,yes,0.43478260869565216,0.5,-0.5,1
11,32,female,welsh,exp,6,6,exp,yes,1141,mixed,f,1179,loss,0,982,0.6,30,0.4,50,LP-HP,j,1263,HP,no-win,18,20,LP,no,-0.10526315789473684,0.5,0.5,1
11,32,female,welsh,exp,6,8,exp,no,817,mixed,f,889,loss,0,878,0.6,20,0.4,50,HP-LP,f,1363,HP,win,12,20,LP,no,-0.5,0.5,-0.5,1
11,32,female,welsh,exp,6,10,exp,yes,11872,mixed,j,1280,loss,0,673,0.7,30,0.3,40,LP-HP,j,1129,HP,no-win,21,12,HP,yes,0.5454545454545454,0.5,0.5,1
11,32,female,welsh,exp,6,12,exp,no,897,mixed,f,816,win,0,1127,0.6,20,0.4,50,LP-HP,j,1043,HP,win,12,20,LP,no,-0.5,-0.5,-0.5,1
11,32,female,welsh,exp,6,14,exp,no,1512,mixed,f,788,loss,0,616,0.6,10,0.4,40,LP-HP,j,795,HP,no-win,6,16,LP,no,-0.9090909090909092,0.5,-0.5,1
11,32,female,welsh,exp,6,16,exp,no,1225,mixed,j,1047,loss,0,932,0.7,10,0.3,50,LP-HP,j,853,HP,win,7,15,LP,no,-0.7272727272727273,0.5,-0.5,1
11,32,female,welsh,exp,6,18,exp,yes,1422,mixed,f,1052,loss,0,628,0.8,10,0.2,20,HP-LP,f,900,HP,win,8,4,HP,yes,0.6666666666666666,0.5,0.5,1
11,32,female,welsh,exp,6,20,exp,yes,893,mixed,j,722,win,0,893,0.7,30,0.3,40,HP-LP,f,892,HP,win,21,12,HP,yes,0.5454545454545454,-0.5,0.5,1
11,32,female,welsh,exp,6,22,exp,no,1186,mixed,j,846,win,0,822,0.7,10,0.3,30,LP-HP,j,933,HP,win,7,9,LP,no,-0.25,-0.5,-0.5,1
11,32,female,welsh,exp,6,26,exp,no,748,mixed,j,980,win,0,4265,0.7,10,0.3,50,HP-LP,f,1039,HP,win,7,15,LP,no,-0.7272727272727273,-0.5,-0.5,1
11,32,female,welsh,exp,6,28,exp,no,877,mixed,j,825,loss,0,2511,0.6,10,0.4,40,HP-LP,f,1316,HP,win,6,16,LP,no,-0.9090909090909092,0.5,-0.5,1
11,32,female,welsh,exp,6,30,exp,yes,816,mixed,f,811,win,0,909,0.6,40,0.4,50,LP-HP,j,941,HP,win,24,20,HP,yes,0.18181818181818185,-0.5,0.5,1
11,32,female,welsh,exp,6,34,exp,yes,1526,mixed,j,1103,loss,0,829,0.8,10,0.2,20,LP-HP,j,1133,HP,no-win,8,4,HP,yes,0.6666666666666666,0.5,0.5,1
11,32,female,welsh,exp,6,36,exp,no,766,mixed,j,1400,loss,0,922,0.7,20,0.3,30,HP-LP,j,2216,LP,no-win,14,9,HP,no,0.43478260869565216,0.5,-0.5,0
11,32,female,welsh,exp,6,40,exp,yes,1176,mixed,f,858,win,0,856,0.6,20,0.4,50,LP-HP,j,1276,HP,win,12,20,LP,no,-0.5,-0.5,0.5,1
11,32,female,welsh,exp,6,42,exp,yes,1092,mixed,f,1009,loss,0,808,0.6,10,0.4,40,LP-HP,j,1263,HP,no-win,6,16,LP,no,-0.9090909090909092,0.5,0.5,1
11,32,female,welsh,exp,6,44,exp,yes,1236,mixed,f,796,win,0,768,0.6,40,0.4,50,HP-LP,f,1101,HP,win,24,20,HP,yes,0.18181818181818185,-0.5,0.5,1
11,32,female,welsh,exp,6,48,exp,no,711,mixed,f,1347,loss,0,702,0.8,20,0.2,30,HP-LP,f,839,HP,win,16,6,HP,yes,0.9090909090909092,0.5,-0.5,1
11,32,female,welsh,exp,6,50,exp,yes,4201,mixed,j,1043,win,0,845,0.6,10,0.4,40,LP-HP,j,1356,HP,no-win,6,16,LP,no,-0.9090909090909092,-0.5,0.5,1
12,28,male,Hungarian,exp,3,2,exp,no,2456,mixed,j,1063,loss,0,497,0.7,30,0.3,40,LP-HP,j,1137,HP,win,21,12,HP,yes,0.5454545454545454,0.5,-0.5,1
12,28,male,Hungarian,exp,3,4,exp,no,457,mixed,f,736,win,0,322,0.6,10,0.4,40,LP-HP,j,1297,HP,no-win,6,16,LP,no,-0.9090909090909092,-0.5,-0.5,1
12,28,male,Hungarian,exp,3,6,exp,no,561,mixed,j,687,loss,0,617,0.7,10,0.3,30,HP-LP,f,799,HP,win,7,9,LP,no,-0.25,0.5,-0.5,1
12,28,male,Hungarian,exp,3,8,exp,yes,451,mixed,j,760,win,1,1218,0.8,10,0.2,20,HP-LP,f,1032,HP,win,8,4,HP,yes,0.6666666666666666,-0.5,0.5,1
12,28,male,Hungarian,exp,3,12,exp,yes,375,mixed,f,679,win,0,693,0.7,20,0.3,30,LP-HP,j,600,HP,no-win,14,9,HP,yes,0.43478260869565216,-0.5,0.5,1
12,28,male,Hungarian,exp,3,14,exp,yes,266,mixed,j,528,loss,1,534,0.7,10,0.3,50,LP-HP,j,1680,HP,win,7,15,LP,no,-0.7272727272727273,0.5,0.5,1
12,28,male,Hungarian,exp,3,16,exp,yes,460,mixed,f,689,loss,0,497,0.8,20,0.2,30,HP-LP,f,832,HP,win,16,6,HP,yes,0.9090909090909092,0.5,0.5,1
12,28,male,Hungarian,exp,3,18,exp,yes,774,mixed,j,783,win,0,994,0.8,20,0.2,30,HP-LP,f,696,HP,no-win,16,6,HP,yes,0.9090909090909092,-0.5,0.5,1
12,28,male,Hungarian,exp,3,20,exp,yes,416,mixed,j,567,win,0,1051,0.6,10,0.4,40,HP-LP,f,1136,HP,no-win,6,16,LP,no,-0.9090909090909092,-0.5,0.5,1
12,28,male,Hungarian,exp,3,22,exp,no,556,mixed,j,616,loss,0,590,0.8,10,0.2,20,HP-LP,f,640,HP,win,8,4,HP,yes,0.6666666666666666,0.5,-0.5,1
12,28,male,Hungarian,exp,3,24,exp,yes,423,mixed,j,719,loss,0,479,0.7,10,0.3,50,HP-LP,f,864,HP,win,7,15,LP,no,-0.7272727272727273,0.5,0.5,1
12,28,male,Hungarian,exp,3,28,exp,yes,477,mixed,j,1198,loss,0,610,0.7,10,0.3,30,HP-LP,f,615,HP,win,7,9,LP,no,-0.25,0.5,0.5,1
12,28,male,Hungarian,exp,3,30,exp,no,443,mixed,f,664,win,0,803,0.6,40,0.4,50,LP-HP,j,1127,HP,win,24,20,HP,yes,0.18181818181818185,-0.5,-0.5,1
12,28,male,Hungarian,exp,3,32,exp,yes,467,mixed,f,552,loss,0,626,0.6,10,0.4,40,HP-LP,f,848,HP,win,6,16,LP,no,-0.9090909090909092,0.5,0.5,1
12,28,male,Hungarian,exp,3,34,exp,yes,437,mixed,f,615,loss,0,550,0.7,10,0.3,30,LP-HP,j,824,HP,win,7,9,LP,no,-0.25,0.5,0.5,1
12,28,male,Hungarian,exp,3,36,exp,no,371,mixed,j,624,win,0,328,0.8,10,0.2,20,LP-HP,j,776,HP,no-win,8,4,HP,yes,0.6666666666666666,-0.5,-0.5,1
12,28,male,Hungarian,exp,3,38,exp,yes,393,mixed,j,616,win,0,625,0.6,40,0.4,50,LP-HP,j,1455,HP,win,24,20,HP,yes,0.18181818181818185,-0.5,0.5,1
12,28,male,Hungarian,exp,3,40,exp,no,337,mixed,j,1176,win,0,475,0.7,10,0.3,50,LP-HP,j,1448,HP,no-win,7,15,LP,no,-0.7272727272727273,-0.5,-0.5,1
12,28,male,Hungarian,exp,3,42,exp,no,349,mixed,f,512,win,0,451,0.6,20,0.4,50,HP-LP,f,1104,HP,win,12,20,LP,no,-0.5,-0.5,-0.5,1
12,28,male,Hungarian,exp,3,46,exp,yes,441,mixed,j,608,loss,0,539,0.7,30,0.3,40,LP-HP,j,1024,HP,no-win,21,12,HP,yes,0.5454545454545454,0.5,0.5,1
12,28,male,Hungarian,exp,4,2,exp,no,791,mixed,j,632,loss,0,438,0.7,20,0.3,30,LP-HP,j,663,HP,no-win,14,9,HP,yes,0.43478260869565216,0.5,-0.5,1
12,28,male,Hungarian,exp,4,4,exp,no,293,mixed,j,512,win,0,372,0.6,40,0.4,50,HP-LP,f,728,HP,win,24,20,HP,yes,0.18181818181818185,-0.5,-0.5,1
12,28,male,Hungarian,exp,4,8,exp,yes,288,mixed,j,575,win,1,429,0.8,10,0.2,20,LP-HP,f,255,LP,no-win,8,4,HP,no,0.6666666666666666,-0.5,0.5,0
12,28,male,Hungarian,exp,4,10,exp,yes,498,mixed,j,887,win,0,522,0.7,30,0.3,40,LP-HP,j,839,HP,win,21,12,HP,yes,0.5454545454545454,-0.5,0.5,1
12,28,male,Hungarian,exp,4,12,exp,no,368,mixed,j,640,loss,0,349,0.7,10,0.3,30,LP-HP,j,936,HP,win,7,9,LP,no,-0.25,0.5,-0.5,1
12,28,male,Hungarian,exp,4,16,exp,no,299,mixed,j,488,loss,0,309,0.6,40,0.4,50,LP-HP,j,1615,HP,win,24,20,HP,yes,0.18181818181818185,0.5,-0.5,1
12,28,male,Hungarian,exp,4,18,exp,yes,380,mixed,f,583,win,0,349,0.7,30,0.3,40,HP-LP,f,744,HP,win,21,12,HP,yes,0.5454545454545454,-0.5,0.5,1
12,28,male,Hungarian,exp,4,20,exp,yes,386,mixed,j,655,win,0,538,0.7,10,0.3,30,LP-HP,j,559,HP,win,7,9,LP,no,-0.25,-0.5,0.5,1
12,28,male,Hungarian,exp,4,24,exp,yes,276,mixed,j,824,win,0,813,0.7,10,0.3,50,HP-LP,f,519,HP,no-win,7,15,LP,no,-0.7272727272727273,-0.5,0.5,1
12,28,male,Hungarian,exp,4,26,exp,no,333,mixed,f,512,loss,0,416,0.7,10,0.3,50,LP-HP,j,1312,HP,win,7,15,LP,no,-0.7272727272727273,0.5,-0.5,1
12,28,male,Hungarian,exp,4,28,exp,no,285,mixed,f,824,win,0,404,0.7,20,0.3,30,HP-LP,f,721,HP,no-win,14,9,HP,yes,0.43478260869565216,-0.5,-0.5,1
12,28,male,Hungarian,exp,4,32,exp,no,387,mixed,j,656,loss,0,386,0.8,20,0.2,30,HP-LP,f,615,HP,win,16,6,HP,yes,0.9090909090909092,0.5,-0.5,1
12,28,male,Hungarian,exp,4,34,exp,no,266,mixed,f,567,win,0,426,0.7,20,0.3,30,LP-HP,j,583,HP,no-win,14,9,HP,yes,0.43478260869565216,-0.5,-0.5,1
12,28,male,Hungarian,exp,4,36,exp,no,253,mixed,j,624,win,0,281,0.7,30,0.3,40,LP-HP,j,800,HP,win,21,12,HP,yes,0.5454545454545454,-0.5,-0.5,1
12,28,male,Hungarian,exp,4,38,exp,no,265,mixed,f,544,win,0,248,0.6,10,0.4,40,HP-LP,f,655,HP,no-win,6,16,LP,no,-0.9090909090909092,-0.5,-0.5,1
12,28,male,Hungarian,exp,4,40,exp,no,293,mixed,f,544,loss,0,359,0.6,30,0.4,50,LP-HP,j,815,HP,win,18,20,LP,no,-0.10526315789473684,0.5,-0.5,1
12,28,male,Hungarian,exp,4,42,exp,yes,396,mixed,j,487,loss,1,494,0.8,10,0.2,20,LP-HP,j,542,HP,win,8,4,HP,yes,0.6666666666666666,0.5,0.5,1
12,28,male,Hungarian,exp,4,44,exp,yes,519,mixed,f,672,loss,1,541,0.6,20,0.4,50,LP-HP,j,895,HP,win,12,20,LP,no,-0.5,0.5,0.5,1
12,28,male,Hungarian,exp,4,48,exp,no,311,mixed,f,567,loss,0,251,0.7,10,0.3,50,HP-LP,f,656,HP,win,7,15,LP,no,-0.7272727272727273,0.5,-0.5,1
12,28,male,Hungarian,exp,4,50,exp,yes,353,mixed,j,687,win,1,581,0.6,20,0.4,50,HP-LP,f,951,HP,win,12,20,LP,no,-0.5,-0.5,0.5,1
12,28,male,Hungarian,exp,5,4,exp,no,401,mixed,j,432,win,0,364,0.7,10,0.3,50,HP-LP,f,640,HP,win,7,15,LP,no,-0.7272727272727273,-0.5,-0.5,1
12,28,male,Hungarian,exp,5,6,exp,no,253,mixed,f,1095,win,0,308,0.7,10,0.3,30,HP-LP,f,760,HP,no-win,7,9,LP,no,-0.25,-0.5,-0.5,1
12,28,male,Hungarian,exp,5,8,exp,no,355,mixed,f,503,loss,0,331,0.6,10,0.4,40,HP-LP,f,927,HP,win,6,16,LP,no,-0.9090909090909092,0.5,-0.5,1
12,28,male,Hungarian,exp,5,10,exp,no,359,mixed,f,472,win,0,292,0.8,20,0.2,30,HP-LP,f,583,HP,win,16,6,HP,yes,0.9090909090909092,-0.5,-0.5,1
12,28,male,Hungarian,exp,5,16,exp,no,398,mixed,f,494,win,0,394,0.6,30,0.4,50,LP-HP,f,920,LP,no-win,18,20,LP,yes,-0.10526315789473684,-0.5,-0.5,0
12,28,male,Hungarian,exp,5,18,exp,no,257,mixed,j,519,loss,0,255,0.6,40,0.4,50,HP-LP,f,552,HP,win,24,20,HP,yes,0.18181818181818185,0.5,-0.5,1
12,28,male,Hungarian,exp,5,20,exp,yes,428,mixed,f,496,loss,0,493,0.8,20,0.2,30,LP-HP,j,663,HP,win,16,6,HP,yes,0.9090909090909092,0.5,0.5,1
12,28,male,Hungarian,exp,5,22,exp,no,394,mixed,j,312,loss,0,458,0.6,20,0.4,50,LP-HP,j,1536,HP,win,12,20,LP,no,-0.5,0.5,-0.5,1
12,28,male,Hungarian,exp,5,24,exp,yes,359,mixed,f,504,loss,0,421,0.7,20,0.3,30,HP-LP,f,504,HP,win,14,9,HP,yes,0.43478260869565216,0.5,0.5,1
12,28,male,Hungarian,exp,5,26,exp,no,358,mixed,j,558,loss,0,454,0.8,10,0.2,20,LP-HP,j,519,HP,win,8,4,HP,yes,0.6666666666666666,0.5,-0.5,1
12,28,male,Hungarian,exp,5,28,exp,yes,399,mixed,j,528,loss,0,502,0.7,30,0.3,40,HP-LP,f,536,HP,win,21,12,HP,yes,0.5454545454545454,0.5,0.5,1
12,28,male,Hungarian,exp,5,32,exp,yes,308,mixed,j,952,loss,1,298,0.6,30,0.4,50,LP-HP,j,784,HP,no-win,18,20,LP,no,-0.10526315789473684,0.5,0.5,1
12,28,male,Hungarian,exp,5,36,exp,yes,313,mixed,f,272,loss,1,502,0.6,20,0.4,50,HP-LP,f,896,HP,win,12,20,LP,no,-0.5,0.5,0.5,1
12,28,male,Hungarian,exp,5,38,exp,yes,272,mixed,f,264,loss,1,439,0.6,10,0.4,40,LP-HP,j,792,HP,win,6,16,LP,no,-0.9090909090909092,0.5,0.5,1
12,28,male,Hungarian,exp,5,40,exp,yes,342,mixed,j,592,win,1,327,0.8,20,0.2,30,LP-HP,j,687,HP,win,16,6,HP,yes,0.9090909090909092,-0.5,0.5,1
12,28,male,Hungarian,exp,5,42,exp,no,376,mixed,j,360,win,0,294,0.6,20,0.4,50,LP-HP,j,1063,HP,no-win,12,20,LP,no,-0.5,-0.5,-0.5,1
12,28,male,Hungarian,exp,5,44,exp,yes,383,mixed,j,320,win,0,315,0.6,30,0.4,50,HP-LP,f,951,HP,win,18,20,LP,no,-0.10526315789473684,-0.5,0.5,1
12,28,male,Hungarian,exp,5,46,exp,no,310,mixed,j,239,win,0,423,0.7,30,0.3,40,HP-LP,f,575,HP,win,21,12,HP,yes,0.5454545454545454,-0.5,-0.5,1
12,28,male,Hungarian,exp,5,48,exp,no,442,mixed,j,2007,loss,0,504,0.6,30,0.4,50,HP-LP,f,792,HP,win,18,20,LP,no,-0.10526315789473684,0.5,-0.5,1
12,28,male,Hungarian,exp,5,50,exp,yes,326,mixed,j,519,win,0,941,0.7,10,0.3,50,LP-HP,j,623,HP,no-win,7,15,LP,no,-0.7272727272727273,-0.5,0.5,1
12,28,male,Hungarian,exp,6,2,exp,no,519,mixed,j,408,loss,0,319,0.6,10,0.4,40,LP-HP,j,472,HP,win,6,16,LP,no,-0.9090909090909092,0.5,-0.5,1
12,28,male,Hungarian,exp,6,4,exp,no,264,mixed,j,560,loss,0,261,0.7,30,0.3,40,HP-LP,f,695,HP,win,21,12,HP,yes,0.5454545454545454,0.5,-0.5,1
12,28,male,Hungarian,exp,6,6,exp,yes,325,mixed,j,383,win,1,431,0.7,10,0.3,30,HP-LP,f,551,HP,no-win,7,9,LP,no,-0.25,-0.5,0.5,1
12,28,male,Hungarian,exp,6,8,exp,no,272,mixed,f,592,loss,0,539,0.7,20,0.3,30,HP-LP,f,584,HP,win,14,9,HP,yes,0.43478260869565216,0.5,-0.5,1
12,28,male,Hungarian,exp,6,10,exp,yes,359,mixed,f,663,loss,0,462,0.7,20,0.3,30,LP-HP,j,720,HP,win,14,9,HP,yes,0.43478260869565216,0.5,0.5,1
12,28,male,Hungarian,exp,6,12,exp,yes,446,mixed,j,472,win,1,492,0.6,10,0.4,40,LP-HP,j,648,HP,win,6,16,LP,no,-0.9090909090909092,-0.5,0.5,1
12,28,male,Hungarian,exp,6,14,exp,yes,287,mixed,j,480,win,1,422,0.6,20,0.4,50,LP-HP,j,936,HP,win,12,20,LP,no,-0.5,-0.5,0.5,1
12,28,male,Hungarian,exp,6,16,exp,no,291,mixed,j,432,loss,0,346,0.8,20,0.2,30,LP-HP,j,583,HP,no-win,16,6,HP,yes,0.9090909090909092,0.5,-0.5,1
12,28,male,Hungarian,exp,6,18,exp,yes,255,mixed,j,175,loss,0,507,0.8,10,0.2,20,HP-LP,f,535,HP,win,8,4,HP,yes,0.6666666666666666,0.5,0.5,1
12,28,male,Hungarian,exp,6,20,exp,yes,310,mixed,j,512,win,0,398,0.7,20,0.3,30,HP-LP,f,487,HP,win,14,9,HP,yes,0.43478260869565216,-0.5,0.5,1
12,28,male,Hungarian,exp,6,22,exp,yes,282,mixed,f,567,loss,1,315,0.6,30,0.4,50,HP-LP,f,760,HP,no-win,18,20,LP,no,-0.10526315789473684,0.5,0.5,1
12,28,male,Hungarian,exp,6,26,exp,yes,297,mixed,j,215,loss,1,434,0.6,40,0.4,50,HP-LP,f,879,HP,no-win,24,20,HP,yes,0.18181818181818185,0.5,0.5,1
12,28,male,Hungarian,exp,6,28,exp,no,298,mixed,f,167,loss,0,332,0.6,20,0.4,50,HP-LP,f,775,HP,win,12,20,LP,no,-0.5,0.5,-0.5,1
12,28,male,Hungarian,exp,6,32,exp,no,275,mixed,f,248,win,0,274,0.6,30,0.4,50,HP-LP,f,871,HP,no-win,18,20,LP,no,-0.10526315789473684,-0.5,-0.5,1
12,28,male,Hungarian,exp,6,34,exp,no,256,mixed,f,616,win,0,235,0.7,10,0.3,30,LP-HP,j,639,HP,win,7,9,LP,no,-0.25,-0.5,-0.5,1
12,28,male,Hungarian,exp,6,36,exp,no,272,mixed,f,471,win,0,251,0.8,20,0.2,30,LP-HP,j,575,HP,win,16,6,HP,yes,0.9090909090909092,-0.5,-0.5,1
12,28,male,Hungarian,exp,6,42,exp,no,238,mixed,j,191,win,0,254,0.8,10,0.2,20,HP-LP,f,567,HP,win,8,4,HP,yes,0.6666666666666666,-0.5,-0.5,1
12,28,male,Hungarian,exp,6,44,exp,yes,255,mixed,f,864,loss,1,445,0.6,40,0.4,50,LP-HP,j,935,HP,no-win,24,20,HP,yes,0.18181818181818185,0.5,0.5,1
12,28,male,Hungarian,exp,6,48,exp,yes,200,mixed,j,167,win,0,302,0.6,30,0.4,50,LP-HP,j,640,HP,no-win,18,20,LP,no,-0.10526315789473684,-0.5,0.5,1
12,28,male,Hungarian,exp,6,50,exp,yes,722,mixed,j,504,win,0,544,0.6,40,0.4,50,HP-LP,f,1160,HP,win,24,20,HP,yes,0.18181818181818185,-0.5,0.5,1
13,32,male,Polish,exp,3,2,exp,no,2383,mixed,f,1087,loss,0,794,0.8,20,0.2,30,LP-HP,j,1071,HP,no-win,16,6,HP,yes,0.9090909090909092,0.5,-0.5,1
13,32,male,Polish,exp,3,4,exp,no,2570,mixed,f,1423,win,0,717,0.8,20,0.2,30,LP-HP,j,863,HP,win,16,6,HP,yes,0.9090909090909092,-0.5,-0.5,1
13,32,male,Polish,exp,3,6,exp,yes,1071,mixed,f,824,win,1,911,0.6,10,0.4,40,HP-LP,f,1711,HP,win,6,16,LP,no,-0.9090909090909092,-0.5,0.5,1
13,32,male,Polish,exp,3,8,exp,yes,633,mixed,f,831,win,0,1808,0.6,40,0.4,50,HP-LP,f,1367,HP,no-win,24,20,HP,yes,0.18181818181818185,-0.5,0.5,1
13,32,male,Polish,exp,3,12,exp,no,1603,mixed,f,1143,win,0,483,0.6,10,0.4,40,HP-LP,f,1911,HP,no-win,6,16,LP,no,-0.9090909090909092,-0.5,-0.5,1
13,32,male,Polish,exp,3,14,exp,no,601,mixed,f,720,loss,0,1071,0.8,20,0.2,30,HP-LP,f,1455,HP,win,16,6,HP,yes,0.9090909090909092,0.5,-0.5,1
13,32,male,Polish,exp,3,16,exp,no,982,mixed,f,656,loss,0,450,0.8,10,0.2,20,HP-LP,f,487,HP,win,8,4,HP,yes,0.6666666666666666,0.5,-0.5,1
13,32,male,Polish,exp,3,18,exp,yes,649,mixed,f,656,loss,1,496,0.7,20,0.3,30,LP-HP,f,407,LP,no-win,14,9,HP,no,0.43478260869565216,0.5,0.5,0
13,32,male,Polish,exp,3,20,exp,no,676,mixed,f,503,loss,0,585,0.6,40,0.4,50,LP-HP,j,504,HP,no-win,24,20,HP,yes,0.18181818181818185,0.5,-0.5,1
13,32,male,Polish,exp,3,22,exp,yes,514,mixed,f,695,loss,0,572,0.7,10,0.3,50,HP-LP,f,879,HP,win,7,15,LP,no,-0.7272727272727273,0.5,0.5,1
13,32,male,Polish,exp,3,26,exp,no,612,mixed,f,560,win,0,556,0.7,10,0.3,30,LP-HP,j,671,HP,win,7,9,LP,no,-0.25,-0.5,-0.5,1
13,32,male,Polish,exp,3,28,exp,no,549,mixed,f,1327,win,0,885,0.8,10,0.2,20,LP-HP,j,583,HP,win,8,4,HP,yes,0.6666666666666666,-0.5,-0.5,1
13,32,male,Polish,exp,3,32,exp,yes,352,mixed,f,704,loss,1,476,0.7,10,0.3,30,LP-HP,j,575,HP,no-win,7,9,LP,no,-0.25,0.5,0.5,1
13,32,male,Polish,exp,3,34,exp,no,444,mixed,f,568,win,0,781,0.6,40,0.4,50,HP-LP,f,1375,HP,no-win,24,20,HP,yes,0.18181818181818185,-0.5,-0.5,1
13,32,male,Polish,exp,3,36,exp,yes,445,mixed,f,848,loss,0,528,0.7,20,0.3,30,HP-LP,f,783,HP,win,14,9,HP,yes,0.43478260869565216,0.5,0.5,1
13,32,male,Polish,exp,3,38,exp,no,1090,mixed,f,727,win,0,621,0.6,30,0.4,50,LP-HP,j,663,HP,win,18,20,LP,no,-0.10526315789473684,-0.5,-0.5,1
13,32,male,Polish,exp,3,40,exp,yes,710,mixed,f,551,win,1,569,0.6,20,0.4,50,LP-HP,j,736,HP,no-win,12,20,LP,no,-0.5,-0.5,0.5,1
13,32,male,Polish,exp,3,42,exp,yes,588,mixed,f,719,loss,0,500,0.8,10,0.2,20,HP-LP,f,647,HP,no-win,8,4,HP,yes,0.6666666666666666,0.5,0.5,1
13,32,male,Polish,exp,3,48,exp,yes,1271,mixed,f,911,win,1,556,0.7,10,0.3,50,LP-HP,j,695,HP,no-win,7,15,LP,no,-0.7272727272727273,-0.5,0.5,1
13,32,male,Polish,exp,3,50,exp,no,425,mixed,f,592,win,0,1241,0.7,20,0.3,30,LP-HP,j,703,HP,win,14,9,HP,yes,0.43478260869565216,-0.5,-0.5,1
13,32,male,Polish,exp,4,2,exp,yes,991,mixed,f,687,loss,1,609,0.6,20,0.4,50,LP-HP,j,1151,HP,no-win,12,20,LP,no,-0.5,0.5,0.5,1
13,32,male,Polish,exp,4,4,exp,no,814,mixed,f,759,loss,0,1355,0.7,10,0.3,50,HP-LP,f,799,HP,no-win,7,15,LP,no,-0.7272727272727273,0.5,-0.5,1
13,32,male,Polish,exp,4,6,exp,yes,8054,mixed,f,871,win,1,3945,0.6,30,0.4,50,HP-LP,f,1815,HP,no-win,18,20,LP,no,-0.10526315789473684,-0.5,0.5,1
13,32,male,Polish,exp,4,8,exp,yes,2564,mixed,f,815,loss,0,7967,0.8,20,0.2,30,HP-LP,f,879,HP,win,16,6,HP,yes,0.9090909090909092,0.5,0.5,1
13,32,male,Polish,exp,4,10,exp,yes,53762,mixed,f,646,loss,0,1434,0.8,20,0.2,30,LP-HP,j,647,HP,win,16,6,HP,yes,0.9090909090909092,0.5,0.5,1
13,32,male,Polish,exp,4,12,exp,no,1590,mixed,f,775,loss,0,5764,0.6,20,0.4,50,LP-HP,j,575,HP,win,12,20,LP,no,-0.5,0.5,-0.5,1
13,32,male,Polish,exp,4,16,exp,yes,702,mixed,f,1032,win,1,576,0.6,40,0.4,50,LP-HP,j,1191,HP,no-win,24,20,HP,yes,0.18181818181818185,-0.5,0.5,1
13,32,male,Polish,exp,4,18,exp,yes,1450,mixed,f,783,loss,1,867,0.6,10,0.4,40,HP-LP,f,1607,HP,win,6,16,LP,no,-0.9090909090909092,0.5,0.5,1
13,32,male,Polish,exp,4,20,exp,yes,1051,mixed,f,1071,win,0,854,0.7,30,0.3,40,HP-LP,f,1631,HP,win,21,12,HP,yes,0.5454545454545454,-0.5,0.5,1
13,32,male,Polish,exp,4,22,exp,no,3158,mixed,f,647,loss,0,1302,0.8,10,0.2,20,LP-HP,j,687,HP,win,8,4,HP,yes,0.6666666666666666,0.5,-0.5,1
13,32,male,Polish,exp,4,26,exp,yes,668,mixed,f,751,win,1,556,0.6,30,0.4,50,LP-HP,j,1239,HP,win,18,20,LP,no,-0.10526315789473684,-0.5,0.5,1
13,32,male,Polish,exp,4,28,exp,no,870,mixed,f,672,win,0,741,0.6,40,0.4,50,LP-HP,j,959,HP,win,24,20,HP,yes,0.18181818181818185,-0.5,-0.5,1
13,32,male,Polish,exp,4,32,exp,no,568,mixed,f,663,win,0,607,0.7,20,0.3,30,HP-LP,f,1038,HP,no-win,14,9,HP,yes,0.43478260869565216,-0.5,-0.5,1
13,32,male,Polish,exp,4,34,exp,no,453,mixed,f,639,loss,0,425,0.7,30,0.3,40,HP-LP,f,527,HP,win,21,12,HP,yes,0.5454545454545454,0.5,-0.5,1
13,32,male,Polish,exp,4,36,exp,no,296,mixed,f,616,loss,0,447,0.7,20,0.3,30,HP-LP,f,824,HP,no-win,14,9,HP,yes,0.43478260869565216,0.5,-0.5,1
13,32,male,Polish,exp,4,40,exp,yes,336,mixed,f,664,win,2,484,0.7,30,0.3,40,LP-HP,j,664,HP,no-win,21,12,HP,yes,0.5454545454545454,-0.5,0.5,1
13,32,male,Polish,exp,4,42,exp,no,348,mixed,f,640,win,0,298,0.6,30,0.4,50,HP-LP,f,959,HP,no-win,18,20,LP,no,-0.10526315789473684,-0.5,-0.5,1
13,32,male,Polish,exp,4,44,exp,yes,341,mixed,f,720,win,1,452,0.7,20,0.3,30,LP-HP,j,719,HP,no-win,14,9,HP,yes,0.43478260869565216,-0.5,0.5,1
13,32,male,Polish,exp,4,46,exp,yes,2752,mixed,f,975,loss,0,1073,0.6,10,0.4,40,LP-HP,j,751,HP,win,6,16,LP,no,-0.9090909090909092,0.5,0.5,1
13,32,male,Polish,exp,4,48,exp,no,949,mixed,f,751,win,0,1331,0.6,10,0.4,40,LP-HP,f,848,LP,no-win,6,16,LP,yes,-0.9090909090909092,-0.5,-0.5,0
13,32,male,Polish,exp,5,2,exp,yes,2807,mixed,f,656,loss,1,449,0.6,30,0.4,50,LP-HP,j,2072,HP,no-win,18,20,LP,no,-0.10526315789473684,0.5,0.5,1
13,32,male,Polish,exp,5,6,exp,yes,760,mixed,f,616,win,0,594,0.8,10,0.2,20,LP-HP,j,575,HP,win,8,4,HP,yes,0.6666666666666666,-0.5,0.5,1
13,32,male,Polish,exp,5,8,exp,yes,406,mixed,f,704,win,0,464,0.8,10,0.2,20,HP-LP,f,759,HP,win,8,4,HP,yes,0.6666666666666666,-0.5,0.5,1
13,32,male,Polish,exp,5,10,exp,yes,2080,mixed,f,615,win,0,453,0.7,20,0.3,30,HP-LP,f,615,HP,win,14,9,HP,yes,0.43478260869565216,-0.5,0.5,1
13,32,male,Polish,exp,5,12,exp,yes,560,mixed,f,575,win,0,390,0.7,10,0.3,30,HP-LP,f,543,HP,no-win,7,9,LP,no,-0.25,-0.5,0.5,1
13,32,male,Polish,exp,5,14,exp,no,416,mixed,f,552,loss,0,605,0.6,40,0.4,50,HP-LP,f,687,HP,no-win,24,20,HP,yes,0.18181818181818185,0.5,-0.5,1
13,32,male,Polish,exp,5,18,exp,no,525,mixed,f,439,loss,0,2101,0.6,30,0.4,50,HP-LP,f,887,HP,win,18,20,LP,no,-0.10526315789473684,0.5,-0.5,1
13,32,male,Polish,exp,5,20,exp,no,777,mixed,f,567,win,0,455,0.8,10,0.2,20,HP-LP,f,503,HP,no-win,8,4,HP,yes,0.6666666666666666,-0.5,-0.5,1
13,32,male,Polish,exp,5,22,exp,yes,429,mixed,f,359,win,2,429,0.6,10,0.4,40,LP-HP,f,344,LP,no-win,6,16,LP,yes,-0.9090909090909092,-0.5,0.5,0
13,32,male,Polish,exp,5,24,exp,no,586,mixed,f,623,loss,0,440,0.7,30,0.3,40,LP-HP,j,559,HP,no-win,21,12,HP,yes,0.5454545454545454,0.5,-0.5,1
13,32,male,Polish,exp,5,26,exp,yes,367,mixed,f,575,loss,2,501,0.7,30,0.3,40,HP-LP,f,607,HP,win,21,12,HP,yes,0.5454545454545454,0.5,0.5,1
13,32,male,Polish,exp,5,28,exp,yes,1005,mixed,f,680,loss,0,441,0.7,10,0.3,50,LP-HP,j,607,HP,win,7,15,LP,no,-0.7272727272727273,0.5,0.5,1
13,32,male,Polish,exp,5,30,exp,yes,2450,mixed,f,647,loss,1,434,0.6,40,0.4,50,LP-HP,j,1087,HP,no-win,24,20,HP,yes,0.18181818181818185,0.5,0.5,1
13,32,male,Polish,exp,5,32,exp,yes,728,mixed,f,615,loss,1,430,0.6,40,0.4,50,HP-LP,f,752,HP,no-win,24,20,HP,yes,0.18181818181818185,0.5,0.5,1
13,32,male,Polish,exp,5,34,exp,no,1136,mixed,f,583,win,0,795,0.6,20,0.4,50,HP-LP,f,928,HP,no-win,12,20,LP,no,-0.5,-0.5,-0.5,1
13,32,male,Polish,exp,5,36,exp,no,446,mixed,f,511,loss,0,383,0.7,10,0.3,30,LP-HP,j,1079,HP,win,7,9,LP,no,-0.25,0.5,-0.5,1
13,32,male,Polish,exp,5,38,exp,no,705,mixed,f,575,win,0,472,0.7,10,0.3,30,HP-LP,f,679,HP,no-win,7,9,LP,no,-0.25,-0.5,-0.5,1
13,32,male,Polish,exp,5,42,exp,yes,462,mixed,f,567,loss,1,495,0.8,10,0.2,20,LP-HP,j,711,HP,win,8,4,HP,yes,0.6666666666666666,0.5,0.5,1
13,32,male,Polish,exp,5,44,exp,no,702,mixed,f,447,loss,0,429,0.7,20,0.3,30,LP-HP,j,663,HP,no-win,14,9,HP,yes,0.43478260869565216,0.5,-0.5,1
13,32,male,Polish,exp,5,48,exp,yes,436,mixed,f,544,loss,1,348,0.7,30,0.3,40,LP-HP,j,583,HP,win,21,12,HP,yes,0.5454545454545454,0.5,0.5,1
13,32,male,Polish,exp,6,4,exp,no,408,mixed,f,639,loss,0,633,0.7,10,0.3,50,LP-HP,j,600,HP,no-win,7,15,LP,no,-0.7272727272727273,0.5,-0.5,1
13,32,male,Polish,exp,6,6,exp,no,1238,mixed,f,735,loss,0,675,0.6,30,0.4,50,LP-HP,f,2520,LP,no-win,18,20,LP,yes,-0.10526315789473684,0.5,-0.5,0
13,32,male,Polish,exp,6,8,exp,yes,284,mixed,f,775,win,1,530,0.7,10,0.3,50,HP-LP,f,871,HP,win,7,15,LP,no,-0.7272727272727273,-0.5,0.5,1
13,32,male,Polish,exp,6,10,exp,no,774,mixed,f,767,win,0,573,0.7,10,0.3,50,HP-LP,f,639,HP,win,7,15,LP,no,-0.7272727272727273,-0.5,-0.5,1
13,32,male,Polish,exp,6,12,exp,yes,452,mixed,f,639,loss,1,518,0.6,30,0.4,50,HP-LP,j,1023,LP,no-win,18,20,LP,yes,-0.10526315789473684,0.5,0.5,0
13,32,male,Polish,exp,6,14,exp,yes,2239,mixed,f,655,win,1,426,0.6,20,0.4,50,HP-LP,f,816,HP,no-win,12,20,LP,no,-0.5,-0.5,0.5,1
13,32,male,Polish,exp,6,16,exp,yes,1145,mixed,f,559,loss,1,481,0.6,20,0.4,50,HP-LP,f,968,HP,win,12,20,LP,no,-0.5,0.5,0.5,1
13,32,male,Polish,exp,6,18,exp,no,2171,mixed,f,743,loss,0,479,0.6,20,0.4,50,HP-LP,f,935,HP,win,12,20,LP,no,-0.5,0.5,-0.5,1
13,32,male,Polish,exp,6,20,exp,no,777,mixed,f,600,loss,0,427,0.6,10,0.4,40,LP-HP,j,783,HP,win,6,16,LP,no,-0.9090909090909092,0.5,-0.5,1
13,32,male,Polish,exp,6,24,exp,no,500,mixed,f,583,win,0,380,0.6,20,0.4,50,LP-HP,j,1079,HP,win,12,20,LP,no,-0.5,-0.5,-0.5,1
13,32,male,Polish,exp,6,30,exp,no,472,mixed,f,567,win,0,1078,0.7,30,0.3,40,HP-LP,f,600,HP,no-win,21,12,HP,yes,0.5454545454545454,-0.5,-0.5,1
13,32,male,Polish,exp,6,32,exp,yes,588,mixed,f,608,loss,1,441,0.7,10,0.3,30,HP-LP,f,583,HP,win,7,9,LP,no,-0.25,0.5,0.5,1
13,32,male,Polish,exp,6,34,exp,no,613,mixed,f,608,loss,0,577,0.6,10,0.4,40,HP-LP,f,535,HP,win,6,16,LP,no,-0.9090909090909092,0.5,-0.5,1
13,32,male,Polish,exp,6,36,exp,yes,705,mixed,f,495,win,1,440,0.8,20,0.2,30,HP-LP,f,511,HP,win,16,6,HP,yes,0.9090909090909092,-0.5,0.5,1
13,32,male,Polish,exp,6,38,exp,no,4612,mixed,f,895,loss,0,628,0.7,10,0.3,30,HP-LP,f,495,HP,win,7,9,LP,no,-0.25,0.5,-0.5,1
13,32,male,Polish,exp,6,40,exp,yes,398,mixed,f,559,win,1,389,0.7,10,0.3,30,LP-HP,f,335,LP,win,7,9,LP,yes,-0.25,-0.5,0.5,0
13,32,male,Polish,exp,6,42,exp,no,377,mixed,f,607,win,0,519,0.7,30,0.3,40,LP-HP,j,495,HP,win,21,12,HP,yes,0.5454545454545454,-0.5,-0.5,1
13,32,male,Polish,exp,6,46,exp,no,391,mixed,f,655,win,0,397,0.8,20,0.2,30,HP-LP,f,639,HP,win,16,6,HP,yes,0.9090909090909092,-0.5,-0.5,1
13,32,male,Polish,exp,6,48,exp,no,295,mixed,f,615,win,0,437,0.7,10,0.3,50,LP-HP,j,631,HP,win,7,15,LP,no,-0.7272727272727273,-0.5,-0.5,1
13,32,male,Polish,exp,6,50,exp,yes,432,mixed,f,671,win,0,487,0.8,20,0.2,30,LP-HP,j,631,HP,win,16,6,HP,yes,0.9090909090909092,-0.5,0.5,1
14,36,male,Italian,exp,3,2,exp,yes,4551,mixed,j,1032,win,0,601,0.6,20,0.4,50,HP-LP,j,3013,LP,no-win,12,20,LP,yes,-0.5,-0.5,0.5,0
14,36,male,Italian,exp,3,6,exp,no,483,mixed,f,1891,loss,0,673,0.6,40,0.4,50,LP-HP,j,3818,HP,win,24,20,HP,yes,0.18181818181818185,0.5,-0.5,1
14,36,male,Italian,exp,3,8,exp,no,499,mixed,j,1337,loss,0,463,0.7,10,0.3,30,LP-HP,j,1910,HP,win,7,9,LP,no,-0.25,0.5,-0.5,1
14,36,male,Italian,exp,3,10,exp,no,305,mixed,j,1888,loss,0,415,0.6,10,0.4,40,LP-HP,f,1969,LP,no-win,6,16,LP,yes,-0.9090909090909092,0.5,-0.5,0
14,36,male,Italian,exp,3,12,exp,yes,371,mixed,f,1138,loss,1,505,0.8,10,0.2,20,HP-LP,f,1209,HP,no-win,8,4,HP,yes,0.6666666666666666,0.5,0.5,1
14,36,male,Italian,exp,3,16,exp,yes,464,mixed,j,920,win,1,566,0.6,10,0.4,40,LP-HP,f,2777,LP,win,6,16,LP,yes,-0.9090909090909092,-0.5,0.5,0
14,36,male,Italian,exp,3,18,exp,no,531,mixed,j,1640,win,0,519,0.6,20,0.4,50,LP-HP,f,2567,LP,no-win,12,20,LP,yes,-0.5,-0.5,-0.5,0
14,36,male,Italian,exp,3,22,exp,yes,450,mixed,f,1056,loss,1,525,0.7,10,0.3,50,HP-LP,f,2977,HP,win,7,15,LP,no,-0.7272727272727273,0.5,0.5,1
14,36,male,Italian,exp,3,24,exp,no,335,mixed,f,1667,loss,0,389,0.6,20,0.4,50,LP-HP,j,943,HP,no-win,12,20,LP,no,-0.5,0.5,-0.5,1
14,36,male,Italian,exp,3,26,exp,yes,417,mixed,j,1490,win,1,462,0.7,10,0.3,30,LP-HP,j,1256,HP,win,7,9,LP,no,-0.25,-0.5,0.5,1
14,36,male,Italian,exp,3,28,exp,yes,297,mixed,f,1405,win,1,494,0.6,30,0.4,50,HP-LP,f,2404,HP,win,18,20,LP,no,-0.10526315789473684,-0.5,0.5,1
14,36,male,Italian,exp,3,30,exp,yes,507,mixed,j,1427,loss,1,530,0.6,20,0.4,50,LP-HP,f,2153,LP,no-win,12,20,LP,yes,-0.5,0.5,0.5,0
14,36,male,Italian,exp,3,32,exp,yes,476,mixed,j,1172,loss,1,468,0.6,10,0.4,40,HP-LP,j,2525,LP,no-win,6,16,LP,yes,-0.9090909090909092,0.5,0.5,0
14,36,male,Italian,exp,3,36,exp,no,398,mixed,f,1160,win,0,440,0.7,10,0.3,50,HP-LP,f,1934,HP,win,7,15,LP,no,-0.7272727272727273,-0.5,-0.5,1
14,36,male,Italian,exp,3,38,exp,yes,380,mixed,j,1017,win,1,854,0.8,10,0.2,20,LP-HP,j,1636,HP,win,8,4,HP,yes,0.6666666666666666,-0.5,0.5,1
14,36,male,Italian,exp,3,40,exp,no,294,mixed,f,1229,loss,0,407,0.6,30,0.4,50,LP-HP,j,2415,HP,win,18,20,LP,no,-0.10526315789473684,0.5,-0.5,1
14,36,male,Italian,exp,3,42,exp,yes,353,mixed,j,1799,win,1,503,0.7,10,0.3,30,HP-LP,f,1703,HP,win,7,9,LP,no,-0.25,-0.5,0.5,1
14,36,male,Italian,exp,3,44,exp,yes,330,mixed,f,1181,loss,0,483,0.7,10,0.3,50,LP-HP,j,1142,HP,win,7,15,LP,no,-0.7272727272727273,0.5,0.5,1
14,36,male,Italian,exp,3,46,exp,yes,368,mixed,j,862,loss,0,591,0.8,10,0.2,20,LP-HP,j,917,HP,win,8,4,HP,yes,0.6666666666666666,0.5,0.5,1
14,36,male,Italian,exp,3,50,exp,no,470,mixed,j,1719,loss,0,444,0.7,20,0.3,30,LP-HP,j,1461,HP,win,14,9,HP,yes,0.43478260869565216,0.5,-0.5,1
14,36,male,Italian,exp,4,4,exp,no,422,mixed,j,1267,loss,0,334,0.7,10,0.3,50,LP-HP,j,2291,HP,win,7,15,LP,no,-0.7272727272727273,0.5,-0.5,1
14,36,male,Italian,exp,4,6,exp,yes,326,mixed,f,917,loss,1,436,0.8,20,0.2,30,LP-HP,j,749,HP,win,16,6,HP,yes,0.9090909090909092,0.5,0.5,1
14,36,male,Italian,exp,4,8,exp,yes,466,mixed,j,806,loss,0,493,0.8,20,0.2,30,HP-LP,f,908,HP,win,16,6,HP,yes,0.9090909090909092,0.5,0.5,1
14,36,male,Italian,exp,4,10,exp,no,489,mixed,f,609,loss,0,267,0.7,20,0.3,30,HP-LP,f,1178,HP,win,14,9,HP,yes,0.43478260869565216,0.5,-0.5,1
14,36,male,Italian,exp,4,12,exp,no,347,mixed,f,760,loss,0,347,0.7,10,0.3,50,HP-LP,f,937,HP,win,7,15,LP,no,-0.7272727272727273,0.5,-0.5,1
14,36,male,Italian,exp,4,16,exp,no,332,mixed,f,1567,win,0,390,0.6,20,0.4,50,HP-LP,j,1775,LP,win,12,20,LP,yes,-0.5,-0.5,-0.5,0
14,36,male,Italian,exp,4,18,exp,yes,354,mixed,j,1037,loss,1,413,0.6,30,0.4,50,LP-HP,f,1136,LP,no-win,18,20,LP,yes,-0.10526315789473684,0.5,0.5,0
14,36,male,Italian,exp,4,24,exp,no,411,mixed,f,366,win,0,507,0.6,40,0.4,50,LP-HP,f,1263,LP,no-win,24,20,HP,no,0.18181818181818185,-0.5,-0.5,0
14,36,male,Italian,exp,4,26,exp,no,292,mixed,f,642,win,0,467,0.7,10,0.3,30,HP-LP,f,1371,HP,win,7,9,LP,no,-0.25,-0.5,-0.5,1
14,36,male,Italian,exp,4,28,exp,yes,274,mixed,j,1117,win,0,443,0.7,10,0.3,50,HP-LP,f,2267,HP,win,7,15,LP,no,-0.7272727272727273,-0.5,0.5,1
14,36,male,Italian,exp,4,30,exp,no,245,mixed,f,1363,loss,0,389,0.7,30,0.3,40,HP-LP,f,1823,HP,win,21,12,HP,yes,0.5454545454545454,0.5,-0.5,1
14,36,male,Italian,exp,4,32,exp,yes,288,mixed,j,695,win,1,480,0.7,30,0.3,40,HP-LP,f,998,HP,no-win,21,12,HP,yes,0.5454545454545454,-0.5,0.5,1
14,36,male,Italian,exp,4,34,exp,no,236,mixed,f,538,loss,0,287,0.6,40,0.4,50,HP-LP,j,2071,LP,no-win,24,20,HP,no,0.18181818181818185,0.5,-0.5,0
14,36,male,Italian,exp,4,36,exp,yes,276,mixed,j,782,loss,1,439,0.7,10,0.3,30,LP-HP,j,1869,HP,win,7,9,LP,no,-0.25,0.5,0.5,1
14,36,male,Italian,exp,4,40,exp,yes,275,mixed,j,1428,loss,1,358,0.6,10,0.4,40,LP-HP,f,2263,LP,win,6,16,LP,yes,-0.9090909090909092,0.5,0.5,0
14,36,male,Italian,exp,4,42,exp,yes,252,mixed,f,915,win,0,415,0.6,10,0.4,40,HP-LP,j,1461,LP,no-win,6,16,LP,yes,-0.9090909090909092,-0.5,0.5,0
14,36,male,Italian,exp,4,44,exp,no,331,mixed,f,1021,win,0,500,0.7,30,0.3,40,LP-HP,j,875,HP,win,21,12,HP,yes,0.5454545454545454,-0.5,-0.5,1
14,36,male,Italian,exp,4,46,exp,yes,260,mixed,j,888,loss,1,413,0.6,40,0.4,50,LP-HP,j,2021,HP,no-win,24,20,HP,yes,0.18181818181818185,0.5,0.5,1
14,36,male,Italian,exp,4,48,exp,yes,265,mixed,f,1129,win,0,509,0.8,20,0.2,30,LP-HP,j,830,HP,win,16,6,HP,yes,0.9090909090909092,-0.5,0.5,1
14,36,male,Italian,exp,4,50,exp,yes,327,mixed,f,338,win,1,501,0.8,10,0.2,20,HP-LP,f,1670,HP,win,8,4,HP,yes,0.6666666666666666,-0.5,0.5,1
14,36,male,Italian,exp,5,4,exp,no,286,mixed,f,909,win,0,380,0.7,10,0.3,50,LP-HP,j,1168,HP,win,7,15,LP,no,-0.7272727272727273,-0.5,-0.5,1
14,36,male,Italian,exp,5,6,exp,no,260,mixed,f,660,win,0,337,0.7,20,0.3,30,LP-HP,j,969,HP,win,14,9,HP,yes,0.43478260869565216,-0.5,-0.5,1
14,36,male,Italian,exp,5,8,exp,yes,311,mixed,f,636,win,1,380,0.6,30,0.4,50,LP-HP,j,982,HP,no-win,18,20,LP,no,-0.10526315789473684,-0.5,0.5,1
14,36,male,Italian,exp,5,10,exp,yes,279,mixed,f,495,loss,1,431,0.7,10,0.3,30,HP-LP,f,985,HP,win,7,9,LP,no,-0.25,0.5,0.5,1
14,36,male,Italian,exp,5,12,exp,no,336,mixed,f,1546,win,0,416,0.6,10,0.4,40,LP-HP,j,971,HP,win,6,16,LP,no,-0.9090909090909092,-0.5,-0.5,1
14,36,male,Italian,exp,5,14,exp,no,310,mixed,f,457,loss,0,325,0.7,30,0.3,40,LP-HP,j,1627,HP,win,21,12,HP,yes,0.5454545454545454,0.5,-0.5,1
14,36,male,Italian,exp,5,16,exp,yes,294,mixed,f,607,win,0,544,0.7,20,0.3,30,LP-HP,j,1194,HP,win,14,9,HP,yes,0.43478260869565216,-0.5,0.5,1
14,36,male,Italian,exp,5,18,exp,no,267,mixed,f,722,loss,0,424,0.6,10,0.4,40,HP-LP,j,2777,LP,no-win,6,16,LP,yes,-0.9090909090909092,0.5,-0.5,0
14,36,male,Italian,exp,5,20,exp,no,352,mixed,f,1378,loss,0,266,0.8,10,0.2,20,LP-HP,j,3697,HP,win,8,4,HP,yes,0.6666666666666666,0.5,-0.5,1
14,36,male,Italian,exp,5,22,exp,no,174,mixed,f,661,win,0,314,0.8,20,0.2,30,HP-LP,f,1441,HP,win,16,6,HP,yes,0.9090909090909092,-0.5,-0.5,1
14,36,male,Italian,exp,5,26,exp,yes,355,mixed,j,1675,loss,1,418,0.7,30,0.3,40,HP-LP,f,958,HP,win,21,12,HP,yes,0.5454545454545454,0.5,0.5,1
14,36,male,Italian,exp,5,28,exp,yes,348,mixed,f,557,win,1,433,0.6,40,0.4,50,LP-HP,f,1449,LP,win,24,20,HP,no,0.18181818181818185,-0.5,0.5,0
14,36,male,Italian,exp,5,30,exp,yes,271,mixed,f,768,win,1,408,0.8,20,0.2,30,HP-LP,f,993,HP,win,16,6,HP,yes,0.9090909090909092,-0.5,0.5,1
14,36,male,Italian,exp,5,36,exp,no,268,mixed,f,721,loss,0,307,0.8,20,0.2,30,LP-HP,j,2320,HP,win,16,6,HP,yes,0.9090909090909092,0.5,-0.5,1
14,36,male,Italian,exp,5,38,exp,no,266,mixed,j,528,win,0,374,0.6,40,0.4,50,HP-LP,f,3363,HP,no-win,24,20,HP,yes,0.18181818181818185,-0.5,-0.5,1
14,36,male,Italian,exp,5,40,exp,no,238,mixed,f,231,win,0,280,0.7,20,0.3,30,HP-LP,f,1270,HP,win,14,9,HP,yes,0.43478260869565216,-0.5,-0.5,1
14,36,male,Italian,exp,5,42,exp,yes,178,mixed,f,366,win,1,351,0.6,20,0.4,50,LP-HP,f,2487,LP,no-win,12,20,LP,yes,-0.5,-0.5,0.5,0
14,36,male,Italian,exp,5,46,exp,no,262,mixed,f,1048,win,0,504,0.8,20,0.2,30,LP-HP,j,1025,HP,no-win,16,6,HP,yes,0.9090909090909092,-0.5,-0.5,1
14,36,male,Italian,exp,5,48,exp,no,260,mixed,j,1556,loss,0,255,0.6,20,0.4,50,HP-LP,j,1663,LP,no-win,12,20,LP,yes,-0.5,0.5,-0.5,0
14,36,male,Italian,exp,5,50,exp,no,467,mixed,f,887,loss,0,303,0.6,30,0.4,50,HP-LP,f,1655,HP,win,18,20,LP,no,-0.10526315789473684,0.5,-0.5,1
14,36,male,Italian,exp,6,2,exp,yes,391,mixed,j,771,loss,1,472,0.6,20,0.4,50,HP-LP,j,1470,LP,no-win,12,20,LP,yes,-0.5,0.5,0.5,0
14,36,male,Italian,exp,6,4,exp,yes,228,mixed,f,535,win,1,463,0.7,10,0.3,50,LP-HP,j,2132,HP,win,7,15,LP,no,-0.7272727272727273,-0.5,0.5,1
14,36,male,Italian,exp,6,6,exp,yes,280,mixed,f,778,loss,1,449,0.6,30,0.4,50,HP-LP,j,1101,LP,no-win,18,20,LP,yes,-0.10526315789473684,0.5,0.5,0
14,36,male,Italian,exp,6,8,exp,yes,272,mixed,f,1291,loss,1,340,0.7,30,0.3,40,LP-HP,j,919,HP,win,21,12,HP,yes,0.5454545454545454,0.5,0.5,1
14,36,male,Italian,exp,6,10,exp,yes,277,mixed,j,743,loss,1,482,0.6,40,0.4,50,HP-LP,f,1094,HP,no-win,24,20,HP,yes,0.18181818181818185,0.5,0.5,1
14,36,male,Italian,exp,6,12,exp,yes,524,mixed,j,525,loss,1,731,0.7,20,0.3,30,LP-HP,j,636,HP,no-win,14,9,HP,yes,0.43478260869565216,0.5,0.5,1
14,36,male,Italian,exp,6,16,exp,no,397,mixed,f,246,loss,0,328,0.7,10,0.3,30,HP-LP,j,1880,LP,win,7,9,LP,yes,-0.25,0.5,-0.5,0
14,36,male,Italian,exp,6,18,exp,no,255,mixed,f,498,win,0,293,0.7,10,0.3,30,LP-HP,j,1660,HP,win,7,9,LP,no,-0.25,-0.5,-0.5,1
14,36,male,Italian,exp,6,20,exp,no,267,mixed,f,599,win,0,284,0.7,30,0.3,40,HP-LP,f,874,HP,win,21,12,HP,yes,0.5454545454545454,-0.5,-0.5,1
14,36,male,Italian,exp,6,26,exp,yes,272,mixed,f,404,win,1,314,0.6,40,0.4,50,HP-LP,f,1199,HP,no-win,24,20,HP,yes,0.18181818181818185,-0.5,0.5,1
14,36,male,Italian,exp,6,28,exp,no,288,mixed,f,449,loss,0,317,0.8,20,0.2,30,HP-LP,f,1193,HP,no-win,16,6,HP,yes,0.9090909090909092,0.5,-0.5,1
14,36,male,Italian,exp,6,30,exp,no,216,mixed,f,243,loss,0,270,0.8,10,0.2,20,HP-LP,f,767,HP,win,8,4,HP,yes,0.6666666666666666,0.5,-0.5,1
14,36,male,Italian,exp,6,32,exp,no,99,mixed,f,384,win,0,229,0.6,10,0.4,40,HP-LP,j,1356,LP,no-win,6,16,LP,yes,-0.9090909090909092,-0.5,-0.5,0
14,36,male,Italian,exp,6,34,exp,no,281,mixed,f,396,win,0,308,0.8,10,0.2,20,HP-LP,f,1432,HP,win,8,4,HP,yes,0.6666666666666666,-0.5,-0.5,1
14,36,male,Italian,exp,6,38,exp,yes,305,mixed,f,709,win,0,440,0.7,30,0.3,40,LP-HP,j,952,HP,win,21,12,HP,yes,0.5454545454545454,-0.5,0.5,1
14,36,male,Italian,exp,6,40,exp,no,242,mixed,f,268,win,0,329,0.6,30,0.4,50,LP-HP,j,1018,HP,win,18,20,LP,no,-0.10526315789473684,-0.5,-0.5,1
14,36,male,Italian,exp,6,42,exp,yes,239,mixed,j,273,win,1,499,0.7,20,0.3,30,HP-LP,f,929,HP,no-win,14,9,HP,yes,0.43478260869565216,-0.5,0.5,1
14,36,male,Italian,exp,6,44,exp,no,422,mixed,f,190,win,0,299,0.6,30,0.4,50,HP-LP,f,1081,HP,no-win,18,20,LP,no,-0.10526315789473684,-0.5,-0.5,1
14,36,male,Italian,exp,6,46,exp,yes,252,mixed,f,221,loss,1,460,0.7,20,0.3,30,HP-LP,f,832,HP,no-win,14,9,HP,yes,0.43478260869565216,0.5,0.5,1
14,36,male,Italian,exp,6,50,exp,no,271,mixed,f,686,win,0,277,0.8,10,0.2,20,LP-HP,j,1557,HP,win,8,4,HP,yes,0.6666666666666666,-0.5,-0.5,1
15,23,female,Italy,exp,3,2,exp,yes,2611,mixed,j,1601,win,0,2133,0.7,10,0.3,50,HP-LP,f,1351,HP,win,7,15,LP,no,-0.7272727272727273,-0.5,0.5,1
15,23,female,Italy,exp,3,4,exp,no,1177,mixed,j,2243,win,0,1212,0.7,10,0.3,50,LP-HP,j,820,HP,no-win,7,15,LP,no,-0.7272727272727273,-0.5,-0.5,1
15,23,female,Italy,exp,3,6,exp,yes,529,mixed,f,679,loss,0,673,0.6,10,0.4,40,HP-LP,f,1380,HP,no-win,6,16,LP,no,-0.9090909090909092,0.5,0.5,1
15,23,female,Italy,exp,3,8,exp,no,579,mixed,j,818,win,0,3547,0.8,10,0.2,20,HP-LP,f,758,HP,win,8,4,HP,yes,0.6666666666666666,-0.5,-0.5,1
15,23,female,Italy,exp,3,10,exp,no,432,mixed,j,1204,loss,0,497,0.7,20,0.3,30,HP-LP,f,803,HP,win,14,9,HP,yes,0.43478260869565216,0.5,-0.5,1
15,23,female,Italy,exp,3,16,exp,no,244,mixed,j,1111,loss,0,673,0.6,40,0.4,50,LP-HP,j,4065,HP,win,24,20,HP,yes,0.18181818181818185,0.5,-0.5,1
15,23,female,Italy,exp,3,18,exp,no,711,mixed,f,1404,loss,0,656,0.6,10,0.4,40,HP-LP,j,3002,LP,no-win,6,16,LP,yes,-0.9090909090909092,0.5,-0.5,0
15,23,female,Italy,exp,3,20,exp,yes,742,mixed,j,1634,win,0,1277,0.6,20,0.4,50,LP-HP,j,3084,HP,win,12,20,LP,no,-0.5,-0.5,0.5,1
15,23,female,Italy,exp,3,22,exp,yes,625,mixed,j,1404,loss,1,433,0.7,30,0.3,40,LP-HP,j,805,HP,win,21,12,HP,yes,0.5454545454545454,0.5,0.5,1
15,23,female,Italy,exp,3,24,exp,no,728,mixed,j,1746,win,0,305,0.7,20,0.3,30,LP-HP,j,705,HP,no-win,14,9,HP,yes,0.43478260869565216,-0.5,-0.5,1
15,23,female,Italy,exp,3,26,exp,no,242,mixed,f,1906,loss,0,202,0.6,30,0.4,50,LP-HP,j,504,HP,win,18,20,LP,no,-0.10526315789473684,0.5,-0.5,1
15,23,female,Italy,exp,3,28,exp,yes,432,mixed,j,550,loss,2,843,0.8,20,0.2,30,HP-LP,f,821,HP,win,16,6,HP,yes,0.9090909090909092,0.5,0.5,1
15,23,female,Italy,exp,3,30,exp,yes,420,mixed,j,904,loss,1,450,0.6,20,0.4,50,LP-HP,j,1691,HP,no-win,12,20,LP,no,-0.5,0.5,0.5,1
15,23,female,Italy,exp,3,32,exp,no,947,mixed,j,814,win,0,489,0.6,40,0.4,50,LP-HP,j,615,HP,win,24,20,HP,yes,0.18181818181818185,-0.5,-0.5,1
15,23,female,Italy,exp,3,34,exp,no,350,mixed,j,695,win,0,261,0.6,30,0.4,50,HP-LP,f,765,HP,win,18,20,LP,no,-0.10526315789473684,-0.5,-0.5,1
15,23,female,Italy,exp,3,36,exp,no,306,mixed,j,954,win,0,508,0.8,20,0.2,30,LP-HP,j,580,HP,win,16,6,HP,yes,0.9090909090909092,-0.5,-0.5,1
15,23,female,Italy,exp,3,38,exp,yes,407,mixed,j,543,loss,1,390,0.6,20,0.4,50,HP-LP,f,938,HP,win,12,20,LP,no,-0.5,0.5,0.5,1
15,23,female,Italy,exp,3,42,exp,yes,582,mixed,j,483,loss,1,356,0.6,10,0.4,40,LP-HP,j,2133,HP,no-win,6,16,LP,no,-0.9090909090909092,0.5,0.5,1
15,23,female,Italy,exp,3,46,exp,yes,465,mixed,j,472,loss,1,413,0.7,10,0.3,50,LP-HP,j,575,HP,win,7,15,LP,no,-0.7272727272727273,0.5,0.5,1
15,23,female,Italy,exp,3,50,exp,yes,334,mixed,j,335,win,0,1114,0.6,30,0.4,50,LP-HP,j,1008,HP,no-win,18,20,LP,no,-0.10526315789473684,-0.5,0.5,1
15,23,female,Italy,exp,4,2,exp,yes,2371,mixed,j,676,win,0,849,0.6,10,0.4,40,HP-LP,f,903,HP,win,6,16,LP,no,-0.9090909090909092,-0.5,0.5,1
15,23,female,Italy,exp,4,4,exp,no,469,mixed,j,768,loss,0,383,0.7,10,0.3,50,HP-LP,f,577,HP,win,7,15,LP,no,-0.7272727272727273,0.5,-0.5,1
15,23,female,Italy,exp,4,6,exp,yes,429,mixed,j,1227,loss,0,361,0.7,20,0.3,30,LP-HP,j,534,HP,win,14,9,HP,yes,0.43478260869565216,0.5,0.5,1
15,23,female,Italy,exp,4,8,exp,no,417,mixed,f,392,win,0,2624,0.7,20,0.3,30,HP-LP,f,655,HP,win,14,9,HP,yes,0.43478260869565216,-0.5,-0.5,1
15,23,female,Italy,exp,4,10,exp,yes,401,mixed,f,400,loss,0,316,0.7,10,0.3,50,HP-LP,f,660,HP,win,7,15,LP,no,-0.7272727272727273,0.5,0.5,1
15,23,female,Italy,exp,4,14,exp,yes,425,mixed,f,2051,loss,1,385,0.6,30,0.4,50,LP-HP,j,561,HP,win,18,20,LP,no,-0.10526315789473684,0.5,0.5,1
15,23,female,Italy,exp,4,16,exp,no,318,mixed,j,545,loss,0,486,0.7,20,0.3,30,LP-HP,j,554,HP,win,14,9,HP,yes,0.43478260869565216,0.5,-0.5,1
15,23,female,Italy,exp,4,18,exp,no,415,mixed,f,1117,loss,0,786,0.6,10,0.4,40,LP-HP,j,473,HP,win,6,16,LP,no,-0.9090909090909092,0.5,-0.5,1
15,23,female,Italy,exp,4,20,exp,no,405,mixed,j,292,loss,0,413,0.6,40,0.4,50,HP-LP,f,672,HP,win,24,20,HP,yes,0.18181818181818185,0.5,-0.5,1
15,23,female,Italy,exp,4,22,exp,yes,280,mixed,f,437,win,1,359,0.6,40,0.4,50,HP-LP,f,881,HP,win,24,20,HP,yes,0.18181818181818185,-0.5,0.5,1
15,23,female,Italy,exp,4,24,exp,yes,257,mixed,f,538,loss,0,310,0.8,20,0.2,30,LP-HP,j,562,HP,win,16,6,HP,yes,0.9090909090909092,0.5,0.5,1
15,23,female,Italy,exp,4,26,exp,no,926,mixed,f,464,loss,0,433,0.8,20,0.2,30,LP-HP,j,524,HP,win,16,6,HP,yes,0.9090909090909092,0.5,-0.5,1
15,23,female,Italy,exp,4,30,exp,yes,222,mixed,j,313,win,1,485,0.7,30,0.3,40,LP-HP,j,533,HP,win,21,12,HP,yes,0.5454545454545454,-0.5,0.5,1
15,23,female,Italy,exp,4,32,exp,no,250,mixed,j,343,win,0,384,0.6,40,0.4,50,HP-LP,j,340,LP,no-win,24,20,HP,no,0.18181818181818185,-0.5,-0.5,0
15,23,female,Italy,exp,4,36,exp,yes,408,mixed,j,656,loss,1,367,0.7,10,0.3,30,HP-LP,f,526,HP,win,7,9,LP,no,-0.25,0.5,0.5,1
15,23,female,Italy,exp,4,38,exp,no,296,mixed,j,745,win,0,391,0.6,20,0.4,50,HP-LP,f,1032,HP,no-win,12,20,LP,no,-0.5,-0.5,-0.5,1
15,23,female,Italy,exp,4,40,exp,no,486,mixed,j,588,loss,0,336,0.8,20,0.2,30,HP-LP,f,542,HP,win,16,6,HP,yes,0.9090909090909092,0.5,-0.5,1
15,23,female,Italy,exp,4,42,exp,yes,544,mixed,j,595,loss,0,1004,0.6,30,0.4,50,HP-LP,f,818,HP,no-win,18,20,LP,no,-0.10526315789473684,0.5,0.5,1
15,23,female,Italy,exp,4,46,exp,yes,312,mixed,j,623,win,0,283,0.8,10,0.2,20,LP-HP,j,786,HP,win,8,4,HP,yes,0.6666666666666666,-0.5,0.5,1
15,23,female,Italy,exp,4,48,exp,no,477,mixed,j,707,win,0,375,0.7,10,0.3,30,LP-HP,j,520,HP,win,7,9,LP,no,-0.25,-0.5,-0.5,1
15,23,female,Italy,exp,5,4,exp,yes,293,mixed,j,369,win,1,344,0.6,40,0.4,50,LP-HP,j,711,HP,no-win,24,20,HP,yes,0.18181818181818185,-0.5,0.5,1
15,23,female,Italy,exp,5,6,exp,yes,293,mixed,j,540,win,1,406,0.7,10,0.3,30,LP-HP,j,471,HP,no-win,7,9,LP,no,-0.25,-0.5,0.5,1
15,23,female,Italy,exp,5,8,exp,no,389,mixed,j,416,win,0,368,0.6,30,0.4,50,LP-HP,j,730,HP,win,18,20,LP,no,-0.10526315789473684,-0.5,-0.5,1
15,23,female,Italy,exp,5,10,exp,no,274,mixed,j,325,loss,0,252,0.6,20,0.4,50,LP-HP,j,999,HP,no-win,12,20,LP,no,-0.5,0.5,-0.5,1
15,23,female,Italy,exp,5,12,exp,yes,430,mixed,j,566,loss,0,286,0.6,40,0.4,50,HP-LP,f,557,HP,win,24,20,HP,yes,0.18181818181818185,0.5,0.5,1
15,23,female,Italy,exp,5,14,exp,no,504,mixed,j,419,loss,0,402,0.7,30,0.3,40,LP-HP,j,529,HP,win,21,12,HP,yes,0.5454545454545454,0.5,-0.5,1
15,23,female,Italy,exp,5,16,exp,yes,280,mixed,j,281,win,1,462,0.7,20,0.3,30,HP-LP,f,528,HP,win,14,9,HP,yes,0.43478260869565216,-0.5,0.5,1
15,23,female,Italy,exp,5,18,exp,no,370,mixed,j,504,loss,0,641,0.7,30,0.3,40,HP-LP,f,521,HP,win,21,12,HP,yes,0.5454545454545454,0.5,-0.5,1
15,23,female,Italy,exp,5,22,exp,no,274,mixed,j,423,win,0,380,0.7,30,0.3,40,LP-HP,j,517,HP,no-win,21,12,HP,yes,0.5454545454545454,-0.5,-0.5,1
15,23,female,Italy,exp,5,24,exp,no,448,mixed,j,345,win,0,293,0.7,10,0.3,30,HP-LP,f,520,HP,win,7,9,LP,no,-0.25,-0.5,-0.5,1
15,23,female,Italy,exp,5,26,exp,no,393,mixed,j,513,loss,0,459,0.6,30,0.4,50,HP-LP,f,944,HP,win,18,20,LP,no,-0.10526315789473684,0.5,-0.5,1
15,23,female,Italy,exp,5,28,exp,no,324,mixed,j,800,loss,0,263,0.7,10,0.3,50,LP-HP,j,470,HP,win,7,15,LP,no,-0.7272727272727273,0.5,-0.5,1
15,23,female,Italy,exp,5,30,exp,no,500,mixed,j,519,win,0,270,0.7,30,0.3,40,HP-LP,f,440,HP,no-win,21,12,HP,yes,0.5454545454545454,-0.5,-0.5,1
15,23,female,Italy,exp,5,32,exp,yes,295,mixed,j,548,win,0,344,0.8,20,0.2,30,LP-HP,j,473,HP,win,16,6,HP,yes,0.9090909090909092,-0.5,0.5,1
15,23,female,Italy,exp,5,36,exp,yes,586,mixed,j,538,loss,1,554,0.7,10,0.3,30,LP-HP,j,476,HP,win,7,9,LP,no,-0.25,0.5,0.5,1
15,23,female,Italy,exp,5,38,exp,no,405,mixed,j,464,loss,0,286,0.6,20,0.4,50,HP-LP,f,581,HP,no-win,12,20,LP,no,-0.5,0.5,-0.5,1
15,23,female,Italy,exp,5,40,exp,no,259,mixed,j,425,win,0,305,0.6,10,0.4,40,HP-LP,f,526,HP,win,6,16,LP,no,-0.9090909090909092,-0.5,-0.5,1
15,23,female,Italy,exp,5,44,exp,yes,318,mixed,j,509,win,0,612,0.7,10,0.3,30,HP-LP,f,447,HP,win,7,9,LP,no,-0.25,-0.5,0.5,1
15,23,female,Italy,exp,5,46,exp,yes,492,mixed,j,513,win,0,897,0.7,20,0.3,30,LP-HP,j,354,HP,win,14,9,HP,yes,0.43478260869565216,-0.5,0.5,1
15,23,female,Italy,exp,5,48,exp,yes,552,mixed,j,516,loss,0,849,0.7,20,0.3,30,HP-LP,f,399,HP,win,14,9,HP,yes,0.43478260869565216,0.5,0.5,1
15,23,female,Italy,exp,6,2,exp,yes,466,mixed,j,595,loss,0,461,0.8,10,0.2,20,HP-LP,f,475,HP,win,8,4,HP,yes,0.6666666666666666,0.5,0.5,1
15,23,female,Italy,exp,6,4,exp,no,342,mixed,j,494,loss,0,266,0.7,10,0.3,30,LP-HP,j,427,HP,win,7,9,LP,no,-0.25,0.5,-0.5,1
15,23,female,Italy,exp,6,6,exp,no,292,mixed,j,425,loss,0,376,0.7,10,0.3,30,HP-LP,f,477,HP,win,7,9,LP,no,-0.25,0.5,-0.5,1
15,23,female,Italy,exp,6,8,exp,no,281,mixed,j,301,win,0,306,0.7,10,0.3,50,HP-LP,f,421,HP,win,7,15,LP,no,-0.7272727272727273,-0.5,-0.5,1
15,23,female,Italy,exp,6,10,exp,yes,257,mixed,j,410,win,1,333,0.8,20,0.2,30,HP-LP,f,404,HP,win,16,6,HP,yes,0.9090909090909092,-0.5,0.5,1
15,23,female,Italy,exp,6,12,exp,no,327,mixed,j,255,win,0,707,0.8,20,0.2,30,HP-LP,f,404,HP,win,16,6,HP,yes,0.9090909090909092,-0.5,-0.5,1
15,23,female,Italy,exp,6,14,exp,yes,630,mixed,j,302,win,0,568,0.6,10,0.4,40,LP-HP,j,826,HP,win,6,16,LP,no,-0.9090909090909092,-0.5,0.5,1
15,23,female,Italy,exp,6,16,exp,no,535,mixed,j,254,win,0,789,0.8,10,0.2,20,LP-HP,j,444,HP,win,8,4,HP,yes,0.6666666666666666,-0.5,-0.5,1
15,23,female,Italy,exp,6,20,exp,no,262,mixed,j,308,loss,0,403,0.8,10,0.2,20,HP-LP,f,400,HP,win,8,4,HP,yes,0.6666666666666666,0.5,-0.5,1
15,23,female,Italy,exp,6,22,exp,no,324,mixed,j,369,win,0,475,0.6,10,0.4,40,LP-HP,j,424,HP,no-win,6,16,LP,no,-0.9090909090909092,-0.5,-0.5,1
15,23,female,Italy,exp,6,26,exp,yes,343,mixed,j,428,loss,1,363,0.8,10,0.2,20,LP-HP,j,399,HP,no-win,8,4,HP,yes,0.6666666666666666,0.5,0.5,1
15,23,female,Italy,exp,6,28,exp,no,389,mixed,j,457,win,0,244,0.6,20,0.4,50,LP-HP,j,433,HP,win,12,20,LP,no,-0.5,-0.5,-0.5,1
15,23,female,Italy,exp,6,30,exp,yes,275,mixed,j,365,win,0,346,0.7,30,0.3,40,HP-LP,f,435,HP,no-win,21,12,HP,yes,0.5454545454545454,-0.5,0.5,1
15,23,female,Italy,exp,6,32,exp,no,442,mixed,j,391,loss,0,355,0.8,10,0.2,20,LP-HP,j,221,HP,win,8,4,HP,yes,0.6666666666666666,0.5,-0.5,1
15,23,female,Italy,exp,6,34,exp,yes,412,mixed,j,467,win,0,601,0.6,30,0.4,50,HP-LP,f,491,HP,no-win,18,20,LP,no,-0.10526315789473684,-0.5,0.5,1
15,23,female,Italy,exp,6,36,exp,yes,484,mixed,j,464,win,1,503,0.6,20,0.4,50,HP-LP,j,293,LP,no-win,12,20,LP,yes,-0.5,-0.5,0.5,0
15,23,female,Italy,exp,6,40,exp,yes,543,mixed,j,220,win,0,344,0.7,10,0.3,50,LP-HP,j,415,HP,win,7,15,LP,no,-0.7272727272727273,-0.5,0.5,1
15,23,female,Italy,exp,6,46,exp,yes,521,mixed,j,414,loss,0,880,0.6,40,0.4,50,LP-HP,j,1071,HP,win,24,20,HP,yes,0.18181818181818185,0.5,0.5,1
15,23,female,Italy,exp,6,48,exp,yes,590,mixed,j,357,loss,0,303,0.7,30,0.3,40,HP-LP,f,445,HP,win,21,12,HP,yes,0.5454545454545454,0.5,0.5,1
15,23,female,Italy,exp,6,50,exp,yes,478,mixed,j,435,win,0,402,0.8,10,0.2,20,HP-LP,f,485,HP,win,8,4,HP,yes,0.6666666666666666,-0.5,0.5,1
16,28,male,american,exp,3,4,exp,no,881,mixed,f,1091,win,0,656,0.7,30,0.3,40,HP-LP,f,1456,HP,win,21,12,HP,yes,0.5454545454545454,-0.5,-0.5,1
16,28,male,american,exp,3,6,exp,no,677,mixed,j,843,loss,0,532,0.6,10,0.4,40,HP-LP,j,1523,LP,win,6,16,LP,yes,-0.9090909090909092,0.5,-0.5,0
16,28,male,american,exp,3,10,exp,yes,462,mixed,f,788,loss,1,640,0.8,20,0.2,30,LP-HP,j,1032,HP,win,16,6,HP,yes,0.9090909090909092,0.5,0.5,1
16,28,male,american,exp,3,12,exp,yes,652,mixed,f,1000,loss,0,783,0.7,30,0.3,40,HP-LP,f,1523,HP,win,21,12,HP,yes,0.5454545454545454,0.5,0.5,1
16,28,male,american,exp,3,14,exp,yes,733,mixed,j,857,win,0,906,0.6,10,0.4,40,LP-HP,f,1686,LP,no-win,6,16,LP,yes,-0.9090909090909092,-0.5,0.5,0
16,28,male,american,exp,3,16,exp,yes,478,mixed,j,1104,loss,0,491,0.6,10,0.4,40,HP-LP,j,1589,LP,win,6,16,LP,yes,-0.9090909090909092,0.5,0.5,0
16,28,male,american,exp,3,18,exp,no,581,mixed,j,674,win,0,394,0.6,10,0.4,40,HP-LP,f,838,HP,win,6,16,LP,no,-0.9090909090909092,-0.5,-0.5,1
16,28,male,american,exp,3,24,exp,no,456,mixed,f,951,win,0,470,0.6,20,0.4,50,LP-HP,f,1775,LP,no-win,12,20,LP,yes,-0.5,-0.5,-0.5,0
16,28,male,american,exp,3,26,exp,no,752,mixed,j,763,loss,0,1436,0.7,20,0.3,30,HP-LP,f,1165,HP,win,14,9,HP,yes,0.43478260869565216,0.5,-0.5,1
16,28,male,american,exp,3,28,exp,no,577,mixed,j,409,win,0,566,0.7,10,0.3,30,LP-HP,j,1099,HP,win,7,9,LP,no,-0.25,-0.5,-0.5,1
16,28,male,american,exp,3,30,exp,no,470,mixed,j,496,loss,0,299,0.6,20,0.4,50,HP-LP,f,907,HP,win,12,20,LP,no,-0.5,0.5,-0.5,1
16,28,male,american,exp,3,32,exp,yes,424,mixed,j,573,win,1,826,0.6,20,0.4,50,LP-HP,f,1518,LP,win,12,20,LP,yes,-0.5,-0.5,0.5,0
16,28,male,american,exp,3,34,exp,yes,337,mixed,j,534,win,0,555,0.6,40,0.4,50,HP-LP,f,1996,HP,win,24,20,HP,yes,0.18181818181818185,-0.5,0.5,1
16,28,male,american,exp,3,36,exp,yes,308,mixed,j,437,win,1,347,0.7,30,0.3,40,LP-HP,j,1085,HP,no-win,21,12,HP,yes,0.5454545454545454,-0.5,0.5,1
16,28,male,american,exp,3,38,exp,no,632,mixed,j,667,win,0,484,0.8,20,0.2,30,LP-HP,j,947,HP,win,16,6,HP,yes,0.9090909090909092,-0.5,-0.5,1
16,28,male,american,exp,3,40,exp,no,502,mixed,j,475,win,0,495,0.7,10,0.3,50,HP-LP,j,1397,LP,win,7,15,LP,yes,-0.7272727272727273,-0.5,-0.5,0
16,28,male,american,exp,3,42,exp,yes,451,mixed,j,359,win,1,539,0.8,20,0.2,30,LP-HP,j,294,HP,win,16,6,HP,yes,0.9090909090909092,-0.5,0.5,1
16,28,male,american,exp,3,44,exp,no,428,mixed,j,711,loss,0,538,0.6,10,0.4,40,LP-HP,f,1394,LP,no-win,6,16,LP,yes,-0.9090909090909092,0.5,-0.5,0
16,28,male,american,exp,3,46,exp,no,463,mixed,j,823,win,0,564,0.6,40,0.4,50,HP-LP,f,878,HP,no-win,24,20,HP,yes,0.18181818181818185,-0.5,-0.5,1
16,28,male,american,exp,3,48,exp,no,364,mixed,j,627,loss,0,387,0.8,10,0.2,20,LP-HP,j,1045,HP,win,8,4,HP,yes,0.6666666666666666,0.5,-0.5,1
16,28,male,american,exp,4,4,exp,no,1045,mixed,f,885,win,0,1815,0.7,20,0.3,30,LP-HP,j,1747,HP,win,14,9,HP,yes,0.43478260869565216,-0.5,-0.5,1
16,28,male,american,exp,4,6,exp,no,2155,mixed,f,1092,win,0,1118,0.7,10,0.3,50,LP-HP,f,1656,LP,no-win,7,15,LP,yes,-0.7272727272727273,-0.5,-0.5,0
16,28,male,american,exp,4,8,exp,yes,1704,mixed,f,914,win,0,1005,0.7,20,0.3,30,HP-LP,f,1454,HP,no-win,14,9,HP,yes,0.43478260869565216,-0.5,0.5,1
16,28,male,american,exp,4,10,exp,yes,1750,mixed,f,849,win,0,876,0.8,10,0.2,20,LP-HP,j,1450,HP,win,8,4,HP,yes,0.6666666666666666,-0.5,0.5,1
16,28,male,american,exp,4,12,exp,no,4316,mixed,j,1624,win,0,1077,0.6,40,0.4,50,LP-HP,j,1515,HP,win,24,20,HP,yes,0.18181818181818185,-0.5,-0.5,1
16,28,male,american,exp,4,14,exp,no,2537,mixed,f,828,loss,0,2712,0.6,40,0.4,50,HP-LP,f,952,HP,no-win,24,20,HP,yes,0.18181818181818185,0.5,-0.5,1
16,28,male,american,exp,4,16,exp,no,2122,mixed,j,987,loss,0,2882,0.7,10,0.3,30,HP-LP,j,1508,LP,win,7,9,LP,yes,-0.25,0.5,-0.5,0
16,28,male,american,exp,4,18,exp,yes,990,mixed,f,734,loss,0,665,0.7,20,0.3,30,LP-HP,j,1229,HP,win,14,9,HP,yes,0.43478260869565216,0.5,0.5,1
16,28,male,american,exp,4,20,exp,yes,2147,mixed,f,715,loss,0,456,0.6,30,0.4,50,HP-LP,f,1306,HP,win,18,20,LP,no,-0.10526315789473684,0.5,0.5,1
16,28,male,american,exp,4,22,exp,no,752,mixed,j,981,win,0,2188,0.6,30,0.4,50,LP-HP,f,1441,LP,win,18,20,LP,yes,-0.10526315789473684,-0.5,-0.5,0
16,28,male,american,exp,4,26,exp,yes,872,mixed,f,800,loss,0,1194,0.7,10,0.3,30,LP-HP,j,2170,HP,win,7,9,LP,no,-0.25,0.5,0.5,1
16,28,male,american,exp,4,32,exp,yes,2008,mixed,j,869,win,0,674,0.6,30,0.4,50,HP-LP,f,1805,HP,win,18,20,LP,no,-0.10526315789473684,-0.5,0.5,1
16,28,male,american,exp,4,34,exp,yes,3173,mixed,f,946,win,0,904,0.6,40,0.4,50,LP-HP,f,1748,LP,no-win,24,20,HP,no,0.18181818181818185,-0.5,0.5,0
16,28,male,american,exp,4,38,exp,yes,2415,mixed,j,810,win,1,377,0.6,30,0.4,50,LP-HP,f,1342,LP,no-win,18,20,LP,yes,-0.10526315789473684,-0.5,0.5,0
16,28,male,american,exp,4,40,exp,no,762,mixed,f,673,loss,0,562,0.7,10,0.3,50,LP-HP,f,1546,LP,no-win,7,15,LP,yes,-0.7272727272727273,0.5,-0.5,0
16,28,male,american,exp,4,42,exp,yes,2781,mixed,j,931,win,0,590,0.7,30,0.3,40,HP-LP,f,1188,HP,win,21,12,HP,yes,0.5454545454545454,-0.5,0.5,1
16,28,male,american,exp,4,44,exp,no,4667,mixed,f,707,win,0,3177,0.7,10,0.3,30,HP-LP,f,1715,HP,win,7,9,LP,no,-0.25,-0.5,-0.5,1
16,28,male,american,exp,4,46,exp,yes,2353,mixed,j,851,win,0,401,0.7,10,0.3,30,LP-HP,j,2058,HP,win,7,9,LP,no,-0.25,-0.5,0.5,1
16,28,male,american,exp,4,48,exp,yes,738,mixed,f,782,loss,0,720,0.8,20,0.2,30,HP-LP,f,937,HP,no-win,16,6,HP,yes,0.9090909090909092,0.5,0.5,1
16,28,male,american,exp,4,50,exp,no,3214,mixed,j,798,win,0,3626,0.7,20,0.3,30,HP-LP,f,1246,HP,win,14,9,HP,yes,0.43478260869565216,-0.5,-0.5,1
16,28,male,american,exp,5,2,exp,no,4431,mixed,f,705,win,0,458,0.6,20,0.4,50,HP-LP,j,1127,LP,win,12,20,LP,yes,-0.5,-0.5,-0.5,0
16,28,male,american,exp,5,4,exp,no,513,mixed,f,612,loss,0,903,0.8,20,0.2,30,HP-LP,f,1160,HP,win,16,6,HP,yes,0.9090909090909092,0.5,-0.5,1
16,28,male,american,exp,5,6,exp,no,376,mixed,j,524,loss,0,3096,0.7,10,0.3,30,LP-HP,j,941,HP,win,7,9,LP,no,-0.25,0.5,-0.5,1
16,28,male,american,exp,5,8,exp,yes,533,mixed,f,607,loss,0,517,0.6,40,0.4,50,LP-HP,j,397,HP,win,24,20,HP,yes,0.18181818181818185,0.5,0.5,1
16,28,male,american,exp,5,14,exp,yes,660,mixed,f,730,win,0,610,0.7,10,0.3,50,HP-LP,j,1997,LP,no-win,7,15,LP,yes,-0.7272727272727273,-0.5,0.5,0
16,28,male,american,exp,5,16,exp,yes,256,mixed,f,445,win,0,599,0.6,20,0.4,50,HP-LP,j,1362,LP,win,12,20,LP,yes,-0.5,-0.5,0.5,0
16,28,male,american,exp,5,18,exp,no,734,mixed,j,759,win,0,709,0.8,10,0.2,20,LP-HP,j,1388,HP,no-win,8,4,HP,yes,0.6666666666666666,-0.5,-0.5,1
16,28,male,american,exp,5,20,exp,no,425,mixed,j,581,loss,0,426,0.6,30,0.4,50,LP-HP,f,1813,LP,no-win,18,20,LP,yes,-0.10526315789473684,0.5,-0.5,0
16,28,male,american,exp,5,24,exp,no,450,mixed,f,922,loss,0,527,0.6,40,0.4,50,LP-HP,j,1413,HP,no-win,24,20,HP,yes,0.18181818181818185,0.5,-0.5,1
16,28,male,american,exp,5,26,exp,no,437,mixed,f,868,win,0,676,0.7,30,0.3,40,LP-HP,j,1061,HP,win,21,12,HP,yes,0.5454545454545454,-0.5,-0.5,1
16,28,male,american,exp,5,28,exp,yes,538,mixed,f,870,loss,0,578,0.8,10,0.2,20,LP-HP,j,1392,HP,win,8,4,HP,yes,0.6666666666666666,0.5,0.5,1
16,28,male,american,exp,5,30,exp,yes,934,mixed,f,1251,loss,0,998,0.7,10,0.3,50,HP-LP,f,2166,HP,win,7,15,LP,no,-0.7272727272727273,0.5,0.5,1
16,28,male,american,exp,5,32,exp,yes,562,mixed,j,849,loss,0,838,0.7,30,0.3,40,LP-HP,j,1112,HP,win,21,12,HP,yes,0.5454545454545454,0.5,0.5,1
16,28,male,american,exp,5,34,exp,yes,627,mixed,f,952,win,0,574,0.8,10,0.2,20,HP-LP,f,1444,HP,win,8,4,HP,yes,0.6666666666666666,-0.5,0.5,1
16,28,male,american,exp,5,40,exp,no,323,mixed,j,665,win,0,525,0.8,20,0.2,30,HP-LP,f,1043,HP,win,16,6,HP,yes,0.9090909090909092,-0.5,-0.5,1
16,28,male,american,exp,5,42,exp,yes,673,mixed,j,525,loss,0,729,0.7,10,0.3,30,HP-LP,j,313,LP,no-win,7,9,LP,yes,-0.25,0.5,0.5,0
16,28,male,american,exp,5,44,exp,yes,348,mixed,f,572,loss,0,476,0.7,10,0.3,50,LP-HP,f,1254,LP,win,7,15,LP,yes,-0.7272727272727273,0.5,0.5,0
16,28,male,american,exp,5,46,exp,no,409,mixed,j,521,loss,0,430,0.6,30,0.4,50,HP-LP,f,831,HP,no-win,18,20,LP,no,-0.10526315789473684,0.5,-0.5,1
16,28,male,american,exp,5,48,exp,yes,449,mixed,j,504,win,0,584,0.8,20,0.2,30,HP-LP,f,1097,HP,win,16,6,HP,yes,0.9090909090909092,-0.5,0.5,1
16,28,male,american,exp,5,50,exp,no,418,mixed,f,689,win,0,543,0.8,10,0.2,20,HP-LP,f,1154,HP,win,8,4,HP,yes,0.6666666666666666,-0.5,-0.5,1
16,28,male,american,exp,6,2,exp,no,613,mixed,j,466,loss,0,319,0.7,10,0.3,50,HP-LP,j,1219,LP,no-win,7,15,LP,yes,-0.7272727272727273,0.5,-0.5,0
16,28,male,american,exp,6,6,exp,yes,459,mixed,f,543,win,1,546,0.7,20,0.3,30,LP-HP,j,765,HP,no-win,14,9,HP,yes,0.43478260869565216,-0.5,0.5,1
16,28,male,american,exp,6,8,exp,yes,580,mixed,f,377,loss,1,539,0.8,10,0.2,20,HP-LP,j,328,LP,no-win,8,4,HP,no,0.6666666666666666,0.5,0.5,0
16,28,male,american,exp,6,10,exp,yes,459,mixed,f,539,loss,0,491,0.7,20,0.3,30,HP-LP,f,1085,HP,win,14,9,HP,yes,0.43478260869565216,0.5,0.5,1
16,28,male,american,exp,6,12,exp,no,492,mixed,f,1243,loss,0,493,0.7,30,0.3,40,LP-HP,j,1372,HP,win,21,12,HP,yes,0.5454545454545454,0.5,-0.5,1
16,28,male,american,exp,6,14,exp,no,489,mixed,f,575,win,0,373,0.6,30,0.4,50,HP-LP,f,940,HP,win,18,20,LP,no,-0.10526315789473684,-0.5,-0.5,1
16,28,male,american,exp,6,16,exp,no,441,mixed,f,620,loss,0,660,0.8,20,0.2,30,LP-HP,j,603,HP,win,16,6,HP,yes,0.9090909090909092,0.5,-0.5,1
16,28,male,american,exp,6,18,exp,no,678,mixed,f,556,loss,0,748,0.7,30,0.3,40,HP-LP,f,627,HP,win,21,12,HP,yes,0.5454545454545454,0.5,-0.5,1
16,28,male,american,exp,6,20,exp,yes,666,mixed,f,504,loss,1,614,0.6,40,0.4,50,HP-LP,j,1542,LP,win,24,20,HP,no,0.18181818181818185,0.5,0.5,0
16,28,male,american,exp,6,22,exp,no,484,mixed,f,847,loss,0,605,0.7,20,0.3,30,LP-HP,j,780,HP,win,14,9,HP,yes,0.43478260869565216,0.5,-0.5,1
16,28,male,american,exp,6,24,exp,yes,537,mixed,f,593,loss,0,523,0.6,20,0.4,50,HP-LP,f,1029,HP,win,12,20,LP,no,-0.5,0.5,0.5,1
16,28,male,american,exp,6,26,exp,no,1294,mixed,j,493,loss,0,1197,0.6,20,0.4,50,LP-HP,f,1475,LP,win,12,20,LP,yes,-0.5,0.5,-0.5,0
16,28,male,american,exp,6,32,exp,yes,586,mixed,j,564,loss,0,572,0.6,20,0.4,50,LP-HP,f,1056,LP,win,12,20,LP,yes,-0.5,0.5,0.5,0
16,28,male,american,exp,6,36,exp,yes,374,mixed,f,610,loss,0,611,0.6,30,0.4,50,LP-HP,j,1000,HP,win,18,20,LP,no,-0.10526315789473684,0.5,0.5,1
16,28,male,american,exp,6,40,exp,yes,415,mixed,j,499,win,0,455,0.6,10,0.4,40,HP-LP,j,1253,LP,win,6,16,LP,yes,-0.9090909090909092,-0.5,0.5,0
16,28,male,american,exp,6,42,exp,yes,601,mixed,f,666,loss,0,656,0.6,10,0.4,40,LP-HP,f,1278,LP,no-win,6,16,LP,yes,-0.9090909090909092,0.5,0.5,0
16,28,male,american,exp,6,44,exp,no,563,mixed,j,553,win,0,696,0.6,10,0.4,40,LP-HP,f,893,LP,no-win,6,16,LP,yes,-0.9090909090909092,-0.5,-0.5,0
16,28,male,american,exp,6,46,exp,yes,632,mixed,j,603,win,0,944,0.7,10,0.3,30,HP-LP,f,398,HP,win,7,9,LP,no,-0.25,-0.5,0.5,1
16,28,male,american,exp,6,48,exp,yes,664,mixed,f,798,win,0,644,0.7,10,0.3,50,LP-HP,f,1468,LP,win,7,15,LP,yes,-0.7272727272727273,-0.5,0.5,0
16,28,male,american,exp,6,50,exp,no,483,mixed,j,703,loss,0,463,0.8,10,0.2,20,HP-LP,f,347,HP,win,8,4,HP,yes,0.6666666666666666,0.5,-0.5,1
17,21,male,Polish,exp,3,2,exp,no,2018,mixed,j,1115,loss,0,1061,0.7,20,0.3,30,LP-HP,j,1540,HP,no-win,14,9,HP,yes,0.43478260869565216,0.5,-0.5,1
17,21,male,Polish,exp,3,4,exp,yes,598,mixed,j,1080,loss,0,1203,0.7,10,0.3,30,HP-LP,j,1848,LP,no-win,7,9,LP,yes,-0.25,0.5,0.5,0
17,21,male,Polish,exp,3,6,exp,yes,536,mixed,f,888,loss,0,546,0.6,30,0.4,50,HP-LP,j,1342,LP,no-win,18,20,LP,yes,-0.10526315789473684,0.5,0.5,0
17,21,male,Polish,exp,3,8,exp,yes,660,mixed,j,862,win,0,530,0.8,20,0.2,30,HP-LP,f,973,HP,win,16,6,HP,yes,0.9090909090909092,-0.5,0.5,1
17,21,male,Polish,exp,3,12,exp,no,492,mixed,f,1441,loss,0,566,0.7,20,0.3,30,HP-LP,j,3160,LP,win,14,9,HP,no,0.43478260869565216,0.5,-0.5,0
17,21,male,Polish,exp,3,16,exp,no,441,mixed,j,694,win,0,498,0.8,20,0.2,30,LP-HP,j,1715,HP,win,16,6,HP,yes,0.9090909090909092,-0.5,-0.5,1
17,21,male,Polish,exp,3,18,exp,no,508,mixed,j,1203,win,0,561,0.6,40,0.4,50,LP-HP,j,2842,HP,no-win,24,20,HP,yes,0.18181818181818185,-0.5,-0.5,1
17,21,male,Polish,exp,3,20,exp,no,640,mixed,j,578,win,0,497,0.8,10,0.2,20,HP-LP,f,1783,HP,win,8,4,HP,yes,0.6666666666666666,-0.5,-0.5,1
17,21,male,Polish,exp,3,22,exp,no,719,mixed,f,1227,loss,0,494,0.7,10,0.3,50,LP-HP,f,1939,LP,win,7,15,LP,yes,-0.7272727272727273,0.5,-0.5,0
17,21,male,Polish,exp,3,24,exp,yes,521,mixed,j,1074,loss,0,730,0.6,20,0.4,50,LP-HP,f,1486,LP,win,12,20,LP,yes,-0.5,0.5,0.5,0
17,21,male,Polish,exp,3,28,exp,yes,506,mixed,j,841,win,0,492,0.7,10,0.3,50,HP-LP,f,1659,HP,win,7,15,LP,no,-0.7272727272727273,-0.5,0.5,1
17,21,male,Polish,exp,3,30,exp,no,426,mixed,j,876,win,0,375,0.6,30,0.4,50,HP-LP,j,2453,LP,no-win,18,20,LP,yes,-0.10526315789473684,-0.5,-0.5,0
17,21,male,Polish,exp,3,32,exp,no,76,mixed,j,1170,win,0,419,0.7,10,0.3,30,LP-HP,f,4111,LP,no-win,7,9,LP,yes,-0.25,-0.5,-0.5,0
17,21,male,Polish,exp,3,34,exp,no,287,mixed,j,612,loss,0,466,0.8,20,0.2,30,HP-LP,f,1100,HP,no-win,16,6,HP,yes,0.9090909090909092,0.5,-0.5,1
17,21,male,Polish,exp,3,38,exp,no,528,mixed,j,569,win,0,439,0.7,10,0.3,30,HP-LP,f,1959,HP,no-win,7,9,LP,no,-0.25,-0.5,-0.5,1
17,21,male,Polish,exp,3,40,exp,no,370,mixed,j,633,win,0,537,0.8,10,0.2,20,LP-HP,j,1076,HP,win,8,4,HP,yes,0.6666666666666666,-0.5,-0.5,1
17,21,male,Polish,exp,3,42,exp,no,564,mixed,j,634,win,0,705,0.6,20,0.4,50,HP-LP,j,2896,LP,win,12,20,LP,yes,-0.5,-0.5,-0.5,0
17,21,male,Polish,exp,3,44,exp,no,442,mixed,j,505,win,0,566,0.6,20,0.4,50,LP-HP,j,2145,HP,win,12,20,LP,no,-0.5,-0.5,-0.5,1
17,21,male,Polish,exp,3,48,exp,yes,486,mixed,j,619,win,0,660,0.8,20,0.2,30,LP-HP,j,1293,HP,win,16,6,HP,yes,0.9090909090909092,-0.5,0.5,1
17,21,male,Polish,exp,3,50,exp,no,503,mixed,j,547,win,0,605,0.8,20,0.2,30,HP-LP,f,1484,HP,win,16,6,HP,yes,0.9090909090909092,-0.5,-0.5,1
17,21,male,Polish,exp,4,2,exp,yes,1433,mixed,j,567,win,0,508,0.8,10,0.2,20,HP-LP,f,717,HP,no-win,8,4,HP,yes,0.6666666666666666,-0.5,0.5,1
17,21,male,Polish,exp,4,4,exp,yes,26,mixed,j,640,loss,0,529,0.8,20,0.2,30,HP-LP,f,1100,HP,win,16,6,HP,yes,0.9090909090909092,0.5,0.5,1
17,21,male,Polish,exp,4,6,exp,no,677,mixed,j,631,loss,0,370,0.7,30,0.3,40,LP-HP,j,1744,HP,win,21,12,HP,yes,0.5454545454545454,0.5,-0.5,1
17,21,male,Polish,exp,4,8,exp,yes,383,mixed,f,730,win,0,656,0.7,10,0.3,30,LP-HP,f,2942,LP,no-win,7,9,LP,yes,-0.25,-0.5,0.5,0
17,21,male,Polish,exp,4,12,exp,no,404,mixed,j,592,loss,0,644,0.6,30,0.4,50,HP-LP,f,1765,HP,win,18,20,LP,no,-0.10526315789473684,0.5,-0.5,1
17,21,male,Polish,exp,4,14,exp,yes,575,mixed,j,555,loss,0,561,0.6,40,0.4,50,LP-HP,j,1466,HP,no-win,24,20,HP,yes,0.18181818181818185,0.5,0.5,1
17,21,male,Polish,exp,4,16,exp,yes,421,mixed,j,7862,loss,0,583,0.7,30,0.3,40,HP-LP,f,787,HP,win,21,12,HP,yes,0.5454545454545454,0.5,0.5,1
17,21,male,Polish,exp,4,18,exp,yes,627,mixed,j,699,loss,0,1129,0.6,40,0.4,50,HP-LP,f,1494,HP,win,24,20,HP,yes,0.18181818181818185,0.5,0.5,1
17,21,male,Polish,exp,4,20,exp,no,901,mixed,j,1239,loss,0,606,0.7,10,0.3,30,LP-HP,j,1242,HP,no-win,7,9,LP,no,-0.25,0.5,-0.5,1
17,21,male,Polish,exp,4,24,exp,no,528,mixed,j,834,win,0,529,0.7,20,0.3,30,LP-HP,j,1183,HP,win,14,9,HP,yes,0.43478260869565216,-0.5,-0.5,1
17,21,male,Polish,exp,4,28,exp,yes,658,mixed,j,1234,win,0,995,0.6,30,0.4,50,LP-HP,j,868,HP,win,18,20,LP,no,-0.10526315789473684,-0.5,0.5,1
17,21,male,Polish,exp,4,30,exp,no,1369,mixed,j,1346,win,0,528,0.7,10,0.3,50,HP-LP,f,884,HP,win,7,15,LP,no,-0.7272727272727273,-0.5,-0.5,1
17,21,male,Polish,exp,4,32,exp,yes,1084,mixed,j,916,win,0,626,0.8,10,0.2,20,LP-HP,j,827,HP,win,8,4,HP,yes,0.6666666666666666,-0.5,0.5,1
17,21,male,Polish,exp,4,34,exp,yes,529,mixed,f,765,win,0,529,0.7,20,0.3,30,HP-LP,f,740,HP,no-win,14,9,HP,yes,0.43478260869565216,-0.5,0.5,1
17,21,male,Polish,exp,4,36,exp,yes,591,mixed,j,716,win,0,543,0.7,30,0.3,40,LP-HP,j,774,HP,win,21,12,HP,yes,0.5454545454545454,-0.5,0.5,1
17,21,male,Polish,exp,4,40,exp,no,700,mixed,f,654,win,0,1550,0.6,40,0.4,50,HP-LP,f,806,HP,no-win,24,20,HP,yes,0.18181818181818185,-0.5,-0.5,1
17,21,male,Polish,exp,4,42,exp,no,575,mixed,j,605,loss,0,525,0.6,20,0.4,50,LP-HP,j,991,HP,win,12,20,LP,no,-0.5,0.5,-0.5,1
17,21,male,Polish,exp,4,44,exp,no,522,mixed,f,554,loss,0,984,0.6,10,0.4,40,LP-HP,f,1944,LP,no-win,6,16,LP,yes,-0.9090909090909092,0.5,-0.5,0
17,21,male,Polish,exp,4,48,exp,no,491,mixed,f,670,loss,0,431,0.6,10,0.4,40,HP-LP,f,762,HP,win,6,16,LP,no,-0.9090909090909092,0.5,-0.5,1
17,21,male,Polish,exp,4,50,exp,yes,655,mixed,j,668,loss,0,868,0.6,20,0.4,50,HP-LP,f,990,HP,no-win,12,20,LP,no,-0.5,0.5,0.5,1
17,21,male,Polish,exp,5,2,exp,no,823,mixed,j,567,loss,0,490,0.6,30,0.4,50,LP-HP,j,1763,HP,win,18,20,LP,no,-0.10526315789473684,0.5,-0.5,1
17,21,male,Polish,exp,5,4,exp,yes,564,mixed,j,1024,win,0,537,0.6,40,0.4,50,LP-HP,j,813,HP,win,24,20,HP,yes,0.18181818181818185,-0.5,0.5,1
17,21,male,Polish,exp,5,6,exp,no,684,mixed,j,815,win,0,603,0.6,10,0.4,40,HP-LP,f,1242,HP,no-win,6,16,LP,no,-0.9090909090909092,-0.5,-0.5,1
17,21,male,Polish,exp,5,10,exp,yes,617,mixed,j,670,win,0,1144,0.6,10,0.4,40,LP-HP,j,1096,HP,win,6,16,LP,no,-0.9090909090909092,-0.5,0.5,1
17,21,male,Polish,exp,5,12,exp,no,674,mixed,j,730,win,0,518,0.6,30,0.4,50,LP-HP,j,876,HP,win,18,20,LP,no,-0.10526315789473684,-0.5,-0.5,1
17,21,male,Polish,exp,5,14,exp,yes,617,mixed,f,986,loss,0,630,0.8,10,0.2,20,LP-HP,j,909,HP,win,8,4,HP,yes,0.6666666666666666,0.5,0.5,1
17,21,male,Polish,exp,5,16,exp,no,569,mixed,f,752,win,0,480,0.7,30,0.3,40,LP-HP,j,1147,HP,win,21,12,HP,yes,0.5454545454545454,-0.5,-0.5,1
17,21,male,Polish,exp,5,18,exp,yes,674,mixed,j,570,loss,0,663,0.7,10,0.3,50,HP-LP,f,1027,HP,win,7,15,LP,no,-0.7272727272727273,0.5,0.5,1
17,21,male,Polish,exp,5,20,exp,no,4021,mixed,j,578,loss,0,569,0.6,20,0.4,50,HP-LP,f,1310,HP,no-win,12,20,LP,no,-0.5,0.5,-0.5,1
17,21,male,Polish,exp,5,28,exp,no,597,mixed,f,720,win,0,525,0.7,30,0.3,40,HP-LP,f,1221,HP,win,21,12,HP,yes,0.5454545454545454,-0.5,-0.5,1
17,21,male,Polish,exp,5,32,exp,yes,810,mixed,j,745,loss,0,614,0.6,30,0.4,50,LP-HP,j,1182,HP,win,18,20,LP,no,-0.10526315789473684,0.5,0.5,1
17,21,male,Polish,exp,5,34,exp,no,688,mixed,f,1116,loss,0,661,0.8,10,0.2,20,HP-LP,f,899,HP,win,8,4,HP,yes,0.6666666666666666,0.5,-0.5,1
17,21,male,Polish,exp,5,36,exp,yes,1385,mixed,j,879,loss,0,3765,0.7,10,0.3,50,LP-HP,j,1584,HP,win,7,15,LP,no,-0.7272727272727273,0.5,0.5,1
17,21,male,Polish,exp,5,38,exp,no,612,mixed,f,638,loss,0,1057,0.7,10,0.3,30,HP-LP,f,667,HP,win,7,9,LP,no,-0.25,0.5,-0.5,1
17,21,male,Polish,exp,5,40,exp,yes,550,mixed,j,664,loss,0,590,0.7,20,0.3,30,LP-HP,j,756,HP,win,14,9,HP,yes,0.43478260869565216,0.5,0.5,1
17,21,male,Polish,exp,5,42,exp,no,501,mixed,j,938,loss,0,594,0.8,10,0.2,20,LP-HP,j,667,HP,win,8,4,HP,yes,0.6666666666666666,0.5,-0.5,1
17,21,male,Polish,exp,5,44,exp,yes,57,mixed,j,1581,win,0,584,0.6,10,0.4,40,HP-LP,f,1289,HP,no-win,6,16,LP,no,-0.9090909090909092,-0.5,0.5,1
17,21,male,Polish,exp,5,46,exp,yes,1701,mixed,j,634,win,0,629,0.7,10,0.3,50,LP-HP,j,1588,HP,win,7,15,LP,no,-0.7272727272727273,-0.5,0.5,1
17,21,male,Polish,exp,5,48,exp,yes,1065,mixed,f,678,loss,0,562,0.6,10,0.4,40,LP-HP,f,1817,LP,no-win,6,16,LP,yes,-0.9090909090909092,0.5,0.5,0
17,21,male,Polish,exp,5,50,exp,yes,615,mixed,j,510,win,0,558,0.6,30,0.4,50,HP-LP,f,1151,HP,win,18,20,LP,no,-0.10526315789473684,-0.5,0.5,1
17,21,male,Polish,exp,6,2,exp,yes,1427,mixed,j,647,loss,0,817,0.6,10,0.4,40,HP-LP,f,1475,HP,win,6,16,LP,no,-0.9090909090909092,0.5,0.5,1
17,21,male,Polish,exp,6,6,exp,yes,558,mixed,j,807,win,0,554,0.7,30,0.3,40,HP-LP,f,1163,HP,no-win,21,12,HP,yes,0.5454545454545454,-0.5,0.5,1
17,21,male,Polish,exp,6,10,exp,no,536,mixed,j,868,win,0,692,0.7,10,0.3,50,LP-HP,j,1236,HP,win,7,15,LP,no,-0.7272727272727273,-0.5,-0.5,1
17,21,male,Polish,exp,6,12,exp,yes,543,mixed,f,718,win,0,726,0.6,40,0.4,50,HP-LP,f,918,HP,win,24,20,HP,yes,0.18181818181818185,-0.5,0.5,1
17,21,male,Polish,exp,6,14,exp,yes,589,mixed,j,592,loss,0,506,0.7,20,0.3,30,HP-LP,f,963,HP,win,14,9,HP,yes,0.43478260869565216,0.5,0.5,1
17,21,male,Polish,exp,6,16,exp,yes,618,mixed,j,636,win,0,1130,0.7,20,0.3,30,LP-HP,j,1155,HP,win,14,9,HP,yes,0.43478260869565216,-0.5,0.5,1
17,21,male,Polish,exp,6,18,exp,no,517,mixed,j,619,win,0,386,0.7,20,0.3,30,HP-LP,f,809,HP,no-win,14,9,HP,yes,0.43478260869565216,-0.5,-0.5,1
17,21,male,Polish,exp,6,20,exp,no,480,mixed,j,625,win,0,667,0.6,10,0.4,40,LP-HP,f,1238,LP,win,6,16,LP,yes,-0.9090909090909092,-0.5,-0.5,0
17,21,male,Polish,exp,6,24,exp,no,989,mixed,j,840,loss,0,380,0.6,40,0.4,50,HP-LP,f,846,HP,win,24,20,HP,yes,0.18181818181818185,0.5,-0.5,1
17,21,male,Polish,exp,6,26,exp,no,537,mixed,j,647,loss,0,501,0.7,30,0.3,40,HP-LP,f,1033,HP,no-win,21,12,HP,yes,0.5454545454545454,0.5,-0.5,1
17,21,male,Polish,exp,6,28,exp,no,657,mixed,f,405,loss,0,1036,0.7,10,0.3,50,HP-LP,j,829,LP,no-win,7,15,LP,yes,-0.7272727272727273,0.5,-0.5,0
17,21,male,Polish,exp,6,30,exp,yes,622,mixed,j,302,loss,0,625,0.8,10,0.2,20,HP-LP,f,1290,HP,win,8,4,HP,yes,0.6666666666666666,0.5,0.5,1
17,21,male,Polish,exp,6,32,exp,yes,668,mixed,j,681,win,0,1183,0.6,20,0.4,50,HP-LP,f,1464,HP,no-win,12,20,LP,no,-0.5,-0.5,0.5,1
17,21,male,Polish,exp,6,36,exp,no,916,mixed,j,441,loss,0,757,0.6,40,0.4,50,LP-HP,j,1074,HP,win,24,20,HP,yes,0.18181818181818185,0.5,-0.5,1
17,21,male,Polish,exp,6,40,exp,yes,641,mixed,j,591,loss,0,563,0.7,10,0.3,30,LP-HP,j,1503,HP,win,7,9,LP,no,-0.25,0.5,0.5,1
17,21,male,Polish,exp,6,42,exp,yes,781,mixed,f,1075,loss,0,5827,0.7,30,0.3,40,LP-HP,j,1184,HP,win,21,12,HP,yes,0.5454545454545454,0.5,0.5,1
17,21,male,Polish,exp,6,44,exp,yes,2695,mixed,f,1503,win,0,529,0.7,10,0.3,30,HP-LP,f,665,HP,win,7,9,LP,no,-0.25,-0.5,0.5,1
17,21,male,Polish,exp,6,46,exp,yes,625,mixed,j,589,loss,0,420,0.8,20,0.2,30,LP-HP,j,578,HP,win,16,6,HP,yes,0.9090909090909092,0.5,0.5,1
17,21,male,Polish,exp,6,48,exp,no,501,mixed,f,567,loss,0,403,0.8,20,0.2,30,LP-HP,j,715,HP,win,16,6,HP,yes,0.9090909090909092,0.5,-0.5,1
17,21,male,Polish,exp,6,50,exp,yes,361,mixed,f,574,win,0,735,0.6,20,0.4,50,LP-HP,f,1036,LP,no-win,12,20,LP,yes,-0.5,-0.5,0.5,0
18,22,male,British,exp,3,4,exp,yes,481,mixed,j,828,loss,0,1132,0.6,20,0.4,50,LP-HP,f,1610,LP,no-win,12,20,LP,yes,-0.5,0.5,0.5,0
18,22,male,British,exp,3,10,exp,yes,301,mixed,j,570,loss,0,579,0.6,40,0.4,50,LP-HP,j,3034,HP,win,24,20,HP,yes,0.18181818181818185,0.5,0.5,1
18,22,male,British,exp,3,14,exp,no,408,mixed,j,591,win,0,340,0.6,30,0.4,50,LP-HP,j,1198,HP,no-win,18,20,LP,no,-0.10526315789473684,-0.5,-0.5,1
18,22,male,British,exp,3,16,exp,yes,475,mixed,j,541,win,0,617,0.6,30,0.4,50,HP-LP,j,2271,LP,no-win,18,20,LP,yes,-0.10526315789473684,-0.5,0.5,0
18,22,male,British,exp,3,18,exp,yes,473,mixed,j,977,loss,0,596,0.6,10,0.4,40,HP-LP,j,1217,LP,no-win,6,16,LP,yes,-0.9090909090909092,0.5,0.5,0
18,22,male,British,exp,3,20,exp,no,531,mixed,j,1146,win,0,363,0.7,30,0.3,40,LP-HP,j,892,HP,no-win,21,12,HP,yes,0.5454545454545454,-0.5,-0.5,1
18,22,male,British,exp,3,22,exp,yes,339,mixed,j,601,loss,0,707,0.6,30,0.4,50,HP-LP,f,1785,HP,win,18,20,LP,no,-0.10526315789473684,0.5,0.5,1
18,22,male,British,exp,3,26,exp,yes,367,mixed,j,603,loss,1,541,0.8,20,0.2,30,LP-HP,j,1033,HP,win,16,6,HP,yes,0.9090909090909092,0.5,0.5,1
