subject_ID,age,gender,nationality,exp_part,block_number,trial_number,trial_type,delay,game1_startRT,game1_color,game1_respKey,game1_respRT,game1_outcome,game2_delay_premature,game2_startRT,game2_HP_prob,game2_HP_amount,game2_LP_prob,game2_LP_amount,game2_pos,game2_respKey,game2_respRT,game2_choice,game2_outcome
218,38,female,Polish,practice_game1,1,1,practice,na,1414,mixed,j,1340,win,0,0,0,0,0,0,na,na,0,na,na
218,38,female,Polish,practice_game1,1,2,practice,na,949,mixed,f,520,win,0,0,0,0,0,0,na,na,0,na,na
218,38,female,Polish,practice_game1,1,3,practice,na,728,mixed,f,1913,loss,0,0,0,0,0,0,na,na,0,na,na
218,38,female,Polish,practice_game1,1,4,practice,na,622,mixed,j,1252,loss,0,0,0,0,0,0,na,na,0,na,na
218,38,female,Polish,practice_game2,2,1,practice,na,0,na,na,0,na,0,605,0.8,50,0.4,20,LP-HP,j,1257,HP,win
218,38,female,Polish,practice_game2,2,2,practice,na,0,na,na,0,na,0,23,0.7,10,0.3,50,HP-LP,f,1634,HP,win
218,38,female,Polish,practice_game2,2,3,practice,na,0,na,na,0,na,0,534,0.8,10,0.2,20,HP-LP,f,1189,HP,win
218,38,female,Polish,practice_game2,2,4,practice,na,0,na,na,0,na,0,731,0.6,10,0.4,40,LP-HP,j,2025,HP,win
218,38,female,Polish,practice_game2,2,5,practice,na,0,na,na,0,na,0,639,0.8,20,0.2,30,HP-LP,f,750,HP,win
218,38,female,Polish,exp,3,2,catch,no,2913,mixed,j,1516,win,0,592,0.6,10,0.5,50,LP-HP,f,2102,LP,win
218,38,female,Polish,exp,3,4,exp,yes,517,mixed,f,1184,win,1,626,0.8,20,0.2,30,LP-HP,j,735,HP,win
218,38,female,Polish,exp,3,6,exp,no,808,mixed,j,1160,loss,0,716,0.6,20,0.4,50,HP-LP,f,1351,HP,win
218,38,female,Polish,exp,3,8,exp,yes,496,mixed,j,1761,win,0,428,0.8,20,0.2,30,HP-LP,f,1093,HP,win
218,38,female,Polish,exp,3,10,exp,no,734,mixed,f,738,win,0,142,0.6,20,0.4,50,HP-LP,j,2971,LP,no-win
218,38,female,Polish,exp,3,12,exp,yes,887,mixed,f,727,loss,1,562,0.7,30,0.3,40,HP-LP,f,968,HP,no-win
218,38,female,Polish,exp,3,14,exp,no,478,mixed,j,1283,loss,0,444,0.6,40,0.4,50,HP-LP,f,745,HP,win
218,38,female,Polish,exp,3,16,catch,yes,533,mixed,f,779,win,0,491,0.7,30,0.3,10,LP-HP,j,851,HP,win
218,38,female,Polish,exp,3,18,exp,yes,518,mixed,f,798,loss,0,520,0.8,20,0.2,30,HP-LP,f,779,HP,win
218,38,female,Polish,exp,3,20,exp,yes,815,mixed,j,673,win,0,392,0.7,20,0.3,30,LP-HP,j,664,HP,no-win
218,38,female,Polish,exp,3,22,catch,yes,773,mixed,f,761,loss,0,307,0.7,30,0.3,10,HP-LP,f,717,HP,win
218,38,female,Polish,exp,3,24,catch,no,577,mixed,j,733,win,0,413,0.8,10,0.7,50,LP-HP,f,878,LP,win
218,38,female,Polish,exp,3,26,exp,yes,507,mixed,j,666,loss,1,339,0.7,10,0.3,50,HP-LP,f,1259,HP,win
218,38,female,Polish,exp,3,28,exp,no,554,mixed,f,1035,loss,0,405,0.8,20,0.2,30,HP-LP,f,696,HP,win
218,38,female,Polish,exp,3,30,exp,yes,410,mixed,j,675,win,1,358,0.6,10,0.4,40,LP-HP,j,1866,HP,win
218,38,female,Polish,exp,3,32,exp,no,464,mixed,f,599,win,0,417,0.8,20,0.2,30,HP-LP,f,712,HP,win
218,38,female,Polish,exp,3,34,exp,yes,427,mixed,j,983,loss,0,390,0.7,20,0.3,30,HP-LP,f,639,HP,win
218,38,female,Polish,exp,3,36,exp,no,445,mixed,f,668,loss,0,400,0.8,10,0.2,20,LP-HP,j,628,HP,win
218,38,female,Polish,exp,3,38,exp,yes,484,mixed,f,605,win,1,422,0.8,10,0.2,20,LP-HP,j,529,HP,win
218,38,female,Polish,exp,3,40,exp,no,558,mixed,f,630,win,0,375,0.6,10,0.4,40,HP-LP,f,1451,HP,win
218,38,female,Polish,exp,3,42,exp,yes,569,mixed,j,615,loss,0,342,0.8,10,0.2,20,HP-LP,f,591,HP,win
218,38,female,Polish,exp,3,44,exp,yes,588,mixed,j,572,loss,1,334,0.6,30,0.4,50,HP-LP,f,1259,HP,win
218,38,female,Polish,exp,3,46,exp,no,614,mixed,j,784,win,0,120,0.7,10,0.3,50,HP-LP,f,649,HP,win
218,38,female,Polish,exp,3,48,catch,no,504,mixed,j,679,loss,0,554,0.8,40,0.2,20,LP-HP,j,633,HP,win
218,38,female,Polish,exp,3,50,exp,no,401,mixed,f,591,loss,0,319,0.7,10,0.3,50,LP-HP,j,682,HP,win
218,38,female,Polish,exp,3,52,catch,yes,410,mixed,j,814,win,1,501,0.8,50,0.2,30,LP-HP,j,743,HP,win
218,38,female,Polish,exp,4,2,exp,yes,1518,mixed,f,1073,loss,0,392,0.6,20,0.4,50,LP-HP,j,873,HP,win
218,38,female,Polish,exp,4,4,exp,no,461,mixed,f,593,loss,0,108,0.7,10,0.3,30,LP-HP,j,705,HP,win
218,38,female,Polish,exp,4,6,catch,yes,396,mixed,f,556,loss,1,672,0.6,10,0.5,50,LP-HP,f,1343,LP,win
218,38,female,Polish,exp,4,8,catch,yes,697,mixed,j,1168,loss,0,683,0.8,10,0.7,50,LP-HP,f,1252,LP,no-win
218,38,female,Polish,exp,4,10,exp,no,492,mixed,j,570,win,0,441,0.6,40,0.4,50,HP-LP,f,821,HP,win
218,38,female,Polish,exp,4,12,exp,no,341,mixed,f,1762,loss,0,353,0.7,30,0.3,40,LP-HP,j,558,HP,win
218,38,female,Polish,exp,4,14,catch,no,356,mixed,f,563,loss,0,336,0.8,10,0.7,50,HP-LP,j,919,LP,win
218,38,female,Polish,exp,4,16,catch,yes,381,mixed,j,816,win,1,495,0.8,10,0.7,50,HP-LP,j,851,LP,win
218,38,female,Polish,exp,4,18,exp,yes,496,mixed,f,537,win,1,552,0.7,30,0.3,40,LP-HP,j,627,HP,no-win
218,38,female,Polish,exp,4,20,exp,no,423,mixed,j,1198,win,0,379,0.7,30,0.3,40,HP-LP,f,668,HP,no-win
218,38,female,Polish,exp,4,22,exp,no,361,mixed,f,1167,loss,0,101,0.6,30,0.4,50,LP-HP,j,714,HP,win
218,38,female,Polish,exp,4,24,exp,yes,366,mixed,j,898,loss,0,605,0.6,40,0.4,50,LP-HP,j,1181,HP,no-win
218,38,female,Polish,exp,4,26,catch,no,352,mixed,f,564,win,0,415,0.8,50,0.2,30,HP-LP,f,792,HP,no-win
218,38,female,Polish,exp,4,28,exp,yes,401,mixed,j,640,win,1,377,0.6,20,0.4,50,LP-HP,j,1513,HP,no-win
218,38,female,Polish,exp,4,30,exp,no,503,mixed,f,552,win,0,483,0.8,10,0.2,20,HP-LP,f,787,HP,win
218,38,female,Polish,exp,4,32,exp,yes,484,mixed,j,643,win,1,565,0.6,40,0.4,50,LP-HP,j,831,HP,win
218,38,female,Polish,exp,4,34,exp,yes,433,mixed,f,568,loss,0,414,0.7,10,0.3,30,HP-LP,f,738,HP,win
218,38,female,Polish,exp,4,36,exp,no,454,mixed,j,566,win,0,401,0.8,20,0.2,30,LP-HP,j,623,HP,no-win
218,38,female,Polish,exp,4,38,catch,yes,536,mixed,f,507,win,1,465,0.6,10,0.5,50,HP-LP,j,1107,LP,win
218,38,female,Polish,exp,4,40,exp,yes,543,mixed,f,467,win,0,427,0.7,20,0.3,30,HP-LP,f,688,HP,win
218,38,female,Polish,exp,4,42,exp,no,534,mixed,j,601,win,0,63,0.6,10,0.4,40,LP-HP,j,1549,HP,no-win
218,38,female,Polish,exp,4,44,exp,yes,538,mixed,f,569,win,1,763,0.6,20,0.4,50,HP-LP,f,1326,HP,no-win
218,38,female,Polish,exp,4,46,exp,yes,643,mixed,j,502,loss,1,542,0.7,30,0.3,40,LP-HP,j,973,HP,win
218,38,female,Polish,exp,4,48,exp,no,458,mixed,j,861,win,0,481,0.6,30,0.4,50,HP-LP,f,747,HP,no-win
218,38,female,Polish,exp,4,50,exp,yes,524,mixed,j,423,win,0,934,0.7,30,0.3,40,HP-LP,f,667,HP,win
218,38,female,Polish,exp,4,52,exp,yes,1075,mixed,j,615,win,0,314,0.7,10,0.3,30,HP-LP,f,584,HP,win
218,38,female,Polish,exp,5,2,exp,yes,880,mixed,j,762,loss,0,499,0.6,10,0.4,40,HP-LP,f,736,HP,win
218,38,female,Polish,exp,5,4,exp,yes,587,mixed,j,530,loss,0,416,0.6,30,0.4,50,LP-HP,j,883,HP,win
218,38,female,Polish,exp,5,6,exp,no,442,mixed,f,469,win,0,551,0.8,10,0.2,20,LP-HP,j,717,HP,win
218,38,female,Polish,exp,5,8,catch,no,486,mixed,f,513,loss,0,493,0.6,10,0.5,50,HP-LP,j,591,LP,no-win
218,38,female,Polish,exp,5,10,exp,yes,374,mixed,f,734,win,0,445,0.6,40,0.4,50,HP-LP,f,827,HP,no-win
218,38,female,Polish,exp,5,12,exp,no,290,mixed,j,631,loss,0,132,0.7,10,0.3,30,HP-LP,f,628,HP,win
218,38,female,Polish,exp,5,14,exp,no,418,mixed,j,748,loss,0,529,0.7,20,0.3,30,LP-HP,j,560,HP,win
218,38,female,Polish,exp,5,16,exp,no,350,mixed,f,351,loss,0,395,0.6,30,0.4,50,HP-LP,f,730,HP,win
218,38,female,Polish,exp,5,18,exp,yes,437,mixed,f,1295,loss,0,436,0.6,20,0.4,50,HP-LP,f,1429,HP,win
218,38,female,Polish,exp,5,20,exp,yes,501,mixed,j,562,loss,0,593,0.8,20,0.2,30,LP-HP,j,579,HP,win
218,38,female,Polish,exp,5,22,exp,yes,479,mixed,f,684,loss,0,375,0.6,10,0.4,40,LP-HP,f,1662,LP,win
218,38,female,Polish,exp,5,24,exp,no,663,mixed,j,681,loss,0,568,0.7,20,0.3,30,HP-LP,f,647,HP,win
218,38,female,Polish,exp,5,26,catch,yes,459,mixed,f,880,loss,0,445,0.8,50,0.2,30,HP-LP,f,631,HP,no-win
218,38,female,Polish,exp,5,28,exp,no,371,mixed,f,403,win,0,419,0.7,10,0.3,30,HP-LP,f,697,HP,no-win
218,38,female,Polish,exp,5,30,exp,no,380,mixed,f,372,loss,0,166,0.7,30,0.3,40,HP-LP,f,657,HP,win
218,38,female,Polish,exp,5,32,exp,yes,352,mixed,f,1028,win,1,402,0.7,10,0.3,50,HP-LP,f,645,HP,no-win
218,38,female,Polish,exp,5,34,exp,no,336,mixed,j,471,loss,0,79,0.6,10,0.4,40,LP-HP,j,1278,HP,win
218,38,female,Polish,exp,5,36,catch,no,491,mixed,f,749,win,0,374,0.8,40,0.2,20,HP-LP,f,568,HP,win
218,38,female,Polish,exp,5,38,exp,no,343,mixed,j,840,win,0,134,0.6,40,0.4,50,LP-HP,j,656,HP,no-win
218,38,female,Polish,exp,5,40,exp,no,438,mixed,f,523,win,0,465,0.6,30,0.4,50,LP-HP,j,780,HP,no-win
218,38,female,Polish,exp,5,42,catch,yes,371,mixed,f,446,win,1,375,0.7,10,0.6,50,HP-LP,j,957,LP,no-win
218,38,female,Polish,exp,5,44,catch,no,327,mixed,f,713,loss,0,122,0.7,30,0.3,10,LP-HP,j,655,HP,win
218,38,female,Polish,exp,5,46,exp,no,441,mixed,f,623,win,0,80,0.7,20,0.3,30,LP-HP,j,635,HP,no-win
218,38,female,Polish,exp,5,48,catch,no,409,mixed,j,437,win,0,92,0.7,30,0.3,10,HP-LP,f,604,HP,win
218,38,female,Polish,exp,5,50,exp,no,388,mixed,f,1176,loss,0,158,0.8,20,0.2,30,LP-HP,j,586,HP,win
218,38,female,Polish,exp,5,52,exp,no,542,mixed,f,637,loss,0,597,0.7,10,0.3,50,HP-LP,f,674,HP,win
218,38,female,Polish,exp,6,2,exp,no,627,mixed,j,648,loss,0,439,0.6,20,0.4,50,LP-HP,j,620,HP,win
218,38,female,Polish,exp,6,4,exp,yes,371,mixed,j,584,win,1,380,0.8,10,0.2,20,HP-LP,f,609,HP,win
218,38,female,Polish,exp,6,6,exp,yes,402,mixed,j,633,loss,1,695,0.7,10,0.3,50,LP-HP,j,592,HP,win
218,38,female,Polish,exp,6,8,exp,yes,551,mixed,j,823,win,1,696,0.6,10,0.4,40,HP-LP,f,638,HP,win
218,38,female,Polish,exp,6,10,exp,yes,589,mixed,f,982,win,0,637,0.7,10,0.3,50,LP-HP,j,586,HP,win
218,38,female,Polish,exp,6,12,exp,yes,401,mixed,j,627,loss,0,510,0.6,40,0.4,50,HP-LP,f,615,HP,no-win
218,38,female,Polish,exp,6,14,catch,yes,386,mixed,j,711,loss,1,471,0.7,10,0.6,50,LP-HP,f,1046,LP,no-win
218,38,female,Polish,exp,6,16,catch,yes,381,mixed,j,448,win,1,465,0.8,40,0.2,20,LP-HP,j,734,HP,win
218,38,female,Polish,exp,6,18,exp,yes,472,mixed,f,642,win,1,410,0.6,30,0.4,50,LP-HP,j,876,HP,win
218,38,female,Polish,exp,6,20,exp,yes,497,mixed,f,663,loss,0,486,0.8,10,0.2,20,LP-HP,j,569,HP,win
218,38,female,Polish,exp,6,22,exp,no,444,mixed,f,532,win,0,501,0.7,10,0.3,30,LP-HP,j,568,HP,win
218,38,female,Polish,exp,6,24,catch,yes,538,mixed,f,524,loss,0,524,0.8,40,0.2,20,HP-LP,f,563,HP,win
218,38,female,Polish,exp,6,26,exp,no,933,mixed,f,356,win,0,112,0.7,30,0.3,40,LP-HP,j,650,HP,win
218,38,female,Polish,exp,6,28,exp,yes,373,mixed,f,432,win,1,407,0.6,30,0.4,50,HP-LP,f,783,HP,no-win
218,38,female,Polish,exp,6,30,exp,no,498,mixed,j,707,loss,0,500,0.6,40,0.4,50,LP-HP,j,584,HP,no-win
218,38,female,Polish,exp,6,32,catch,no,436,mixed,j,442,loss,0,18,0.8,50,0.2,30,LP-HP,j,570,HP,win
218,38,female,Polish,exp,6,34,catch,no,397,mixed,j,353,win,0,118,0.7,10,0.6,50,LP-HP,f,1083,LP,win
218,38,female,Polish,exp,6,36,exp,no,383,mixed,f,341,win,0,79,0.6,20,0.4,50,LP-HP,j,899,HP,no-win
218,38,female,Polish,exp,6,38,exp,yes,412,mixed,f,687,win,0,448,0.7,10,0.3,30,LP-HP,j,598,HP,win
218,38,female,Polish,exp,6,40,exp,yes,538,mixed,f,575,loss,0,402,0.7,10,0.3,30,LP-HP,j,667,HP,no-win
218,38,female,Polish,exp,6,42,exp,no,450,mixed,f,485,loss,0,195,0.6,10,0.4,40,HP-LP,f,672,HP,win
218,38,female,Polish,exp,6,44,exp,no,519,mixed,f,364,win,0,541,0.7,20,0.3,30,HP-LP,f,600,HP,no-win
218,38,female,Polish,exp,6,46,exp,yes,430,mixed,f,425,loss,1,516,0.7,20,0.3,30,LP-HP,j,620,HP,win
218,38,female,Polish,exp,6,48,exp,no,577,mixed,f,371,loss,0,535,0.8,10,0.2,20,HP-LP,f,555,HP,win
218,38,female,Polish,exp,6,50,exp,no,498,mixed,f,386,win,0,142,0.7,10,0.3,50,LP-HP,j,648,HP,win
218,38,female,Polish,exp,6,52,catch,no,482,mixed,f,450,loss,0,511,0.7,10,0.6,50,HP-LP,j,1290,LP,win
