subject_ID,age,gender,nationality,exp_part,block_number,trial_number,trial_type,delay,game1_startRT,game1_color,game1_respKey,game1_respRT,game1_outcome,game2_delay_premature,game2_startRT,game2_HP_prob,game2_HP_amount,game2_LP_prob,game2_LP_amount,game2_pos,game2_respKey,game2_respRT,game2_choice,game2_outcome
125,39,male,English,practice_game1,1,1,practice,na,1611,mixed,j,1745,win,0,0,0,0,0,0,na,na,0,na,na
125,39,male,English,practice_game1,1,2,practice,na,1390,mixed,j,1646,loss,0,0,0,0,0,0,na,na,0,na,na
125,39,male,English,practice_game1,1,3,practice,na,3333,mixed,f,932,loss,0,0,0,0,0,0,na,na,0,na,na
125,39,male,English,practice_game1,1,4,practice,na,872,mixed,f,605,win,0,0,0,0,0,0,na,na,0,na,na
125,39,male,English,practice_game2,2,1,practice,na,0,na,na,0,na,0,1438,0.8,20,0.2,30,LP-HP,j,1269,HP,win
125,39,male,English,practice_game2,2,2,practice,na,0,na,na,0,na,0,986,0.8,10,0.2,20,HP-LP,f,1797,HP,win
125,39,male,English,practice_game2,2,3,practice,na,0,na,na,0,na,0,615,0.7,10,0.3,50,HP-LP,j,2685,LP,no-win
125,39,male,English,practice_game2,2,4,practice,na,0,na,na,0,na,0,159,0.6,10,0.4,40,LP-HP,f,1757,LP,win
125,39,male,English,practice_game2,2,5,practice,na,0,na,na,0,na,0,510,0.8,50,0.4,20,HP-LP,f,1061,HP,win
125,39,male,English,exp,3,2,catch,no,1778,mixed,j,981,win,0,684,0.7,30,0.3,10,HP-LP,f,1844,HP,win
125,39,male,English,exp,3,4,exp,no,526,mixed,f,1021,win,0,631,0.6,40,0.4,50,HP-LP,f,1188,HP,win
125,39,male,English,exp,3,6,catch,yes,516,mixed,j,1062,win,0,541,0.6,10,0.5,50,HP-LP,j,2807,LP,win
125,39,male,English,exp,3,8,exp,yes,433,mixed,f,1221,loss,0,369,0.6,10,0.4,40,LP-HP,f,2536,LP,win
125,39,male,English,exp,3,10,exp,yes,515,mixed,j,1205,win,0,479,0.7,10,0.3,30,LP-HP,j,1205,HP,win
125,39,male,English,exp,3,12,exp,yes,586,mixed,j,1022,loss,1,454,0.7,20,0.3,30,HP-LP,f,1151,HP,win
125,39,male,English,exp,3,14,exp,no,988,mixed,f,1277,win,0,421,0.8,20,0.2,30,HP-LP,f,1229,HP,win
125,39,male,English,exp,3,16,exp,yes,527,mixed,f,1646,loss,1,396,0.7,10,0.3,50,LP-HP,j,1127,HP,win
125,39,male,English,exp,3,18,catch,no,733,mixed,j,2373,win,0,2910,0.8,10,0.7,50,HP-LP,j,1500,LP,no-win
125,39,male,English,exp,3,20,exp,no,433,mixed,j,2335,loss,0,490,0.7,20,0.3,30,HP-LP,f,1320,HP,win
125,39,male,English,exp,3,22,exp,yes,488,mixed,f,2326,win,1,535,0.7,10,0.3,50,HP-LP,f,2647,HP,win
125,39,male,English,exp,3,24,exp,yes,829,mixed,f,2606,loss,1,506,0.7,30,0.3,40,LP-HP,j,951,HP,win
125,39,male,English,exp,3,26,exp,yes,1869,mixed,j,1510,win,1,608,0.6,30,0.4,50,HP-LP,j,1334,LP,no-win
125,39,male,English,exp,3,28,exp,no,651,mixed,j,1062,loss,0,462,0.8,20,0.2,30,LP-HP,j,894,HP,win
125,39,male,English,exp,3,30,exp,no,457,mixed,f,790,win,0,61,0.6,40,0.4,50,LP-HP,j,1510,HP,win
125,39,male,English,exp,3,32,exp,no,478,mixed,f,862,loss,0,1,0.7,30,0.3,40,HP-LP,f,1118,HP,win
125,39,male,English,exp,3,34,catch,yes,643,mixed,j,2590,loss,1,612,0.8,50,0.2,30,LP-HP,j,902,HP,win
125,39,male,English,exp,3,36,exp,no,638,mixed,j,13862,loss,0,547,0.7,10,0.3,50,HP-LP,j,1548,LP,no-win
125,39,male,English,exp,3,38,exp,yes,467,mixed,f,639,loss,1,656,0.7,10,0.3,30,LP-HP,j,1381,HP,no-win
125,39,male,English,exp,3,40,catch,no,1069,mixed,f,566,win,0,3100,0.8,40,0.2,20,LP-HP,j,1021,HP,win
125,39,male,English,exp,3,42,catch,no,950,mixed,j,1438,win,0,1944,0.8,50,0.2,30,LP-HP,j,1222,HP,win
125,39,male,English,exp,3,44,exp,yes,1766,mixed,j,1494,loss,0,636,0.6,20,0.4,50,LP-HP,j,1597,HP,win
125,39,male,English,exp,3,46,exp,yes,893,mixed,f,798,loss,0,478,0.6,30,0.4,50,HP-LP,f,965,HP,no-win
125,39,male,English,exp,3,48,exp,yes,136,mixed,j,870,win,0,742,0.8,10,0.2,20,HP-LP,f,1134,HP,win
125,39,male,English,exp,3,50,exp,yes,664,mixed,j,1086,win,0,518,0.8,20,0.2,30,LP-HP,j,765,HP,no-win
125,39,male,English,exp,3,52,exp,no,763,mixed,j,799,win,0,909,0.6,10,0.4,40,LP-HP,f,1534,LP,no-win
125,39,male,English,exp,4,2,exp,no,1283,mixed,j,639,win,0,82,0.7,20,0.3,30,LP-HP,j,652,HP,win
125,39,male,English,exp,4,4,catch,yes,528,mixed,f,805,win,1,969,0.7,30,0.3,10,LP-HP,j,1158,HP,win
125,39,male,English,exp,4,6,exp,no,440,mixed,f,719,loss,0,52,0.6,40,0.4,50,HP-LP,f,1094,HP,no-win
125,39,male,English,exp,4,8,exp,no,540,mixed,j,669,loss,0,55,0.6,10,0.4,40,LP-HP,j,662,HP,no-win
125,39,male,English,exp,4,10,exp,no,431,mixed,f,698,loss,0,163,0.6,10,0.4,40,HP-LP,j,1798,LP,no-win
125,39,male,English,exp,4,12,exp,no,509,mixed,f,777,win,0,208,0.7,10,0.3,50,LP-HP,j,653,HP,win
125,39,male,English,exp,4,14,catch,no,535,mixed,f,693,loss,0,302,0.7,30,0.3,10,LP-HP,j,534,HP,win
125,39,male,English,exp,4,16,catch,yes,27,mixed,j,766,loss,0,484,0.8,10,0.7,50,HP-LP,j,821,LP,win
125,39,male,English,exp,4,18,exp,no,654,mixed,f,886,loss,0,195,0.8,10,0.2,20,HP-LP,f,1549,HP,win
125,39,male,English,exp,4,20,catch,yes,629,mixed,j,662,win,1,654,0.8,10,0.7,50,LP-HP,f,1163,LP,no-win
125,39,male,English,exp,4,22,exp,yes,636,mixed,f,1666,win,1,649,0.7,10,0.3,50,LP-HP,j,1270,HP,win
125,39,male,English,exp,4,24,exp,yes,585,mixed,j,773,win,1,528,0.7,30,0.3,40,HP-LP,f,853,HP,win
125,39,male,English,exp,4,26,exp,yes,575,mixed,j,854,win,0,511,0.6,10,0.4,40,LP-HP,f,1324,LP,no-win
125,39,male,English,exp,4,28,exp,no,573,mixed,j,598,loss,0,126,0.6,20,0.4,50,HP-LP,f,942,HP,no-win
125,39,male,English,exp,4,30,exp,yes,509,mixed,j,782,win,0,634,0.7,20,0.3,30,HP-LP,f,965,HP,win
125,39,male,English,exp,4,32,exp,yes,600,mixed,j,820,loss,0,584,0.6,30,0.4,50,LP-HP,j,886,HP,win
125,39,male,English,exp,4,34,exp,no,570,mixed,f,799,win,0,156,0.6,10,0.4,40,HP-LP,j,1230,LP,win
125,39,male,English,exp,4,36,exp,yes,392,mixed,j,686,win,1,434,0.8,10,0.2,20,LP-HP,j,614,HP,win
125,39,male,English,exp,4,38,catch,yes,516,mixed,f,678,loss,0,567,0.7,10,0.6,50,HP-LP,j,1085,LP,no-win
125,39,male,English,exp,4,40,exp,yes,486,mixed,f,750,loss,1,506,0.6,40,0.4,50,HP-LP,f,1215,HP,win
125,39,male,English,exp,4,42,catch,no,546,mixed,j,653,loss,0,416,0.8,10,0.7,50,LP-HP,f,1150,LP,win
125,39,male,English,exp,4,44,exp,yes,930,mixed,j,732,win,0,43,0.6,20,0.4,50,LP-HP,f,1998,LP,no-win
125,39,male,English,exp,4,46,exp,yes,679,mixed,j,677,win,0,716,0.6,20,0.4,50,HP-LP,j,1534,LP,win
125,39,male,English,exp,4,48,exp,no,584,mixed,f,718,loss,0,537,0.7,10,0.3,30,LP-HP,j,1127,HP,win
125,39,male,English,exp,4,50,exp,no,558,mixed,j,1031,loss,0,432,0.7,10,0.3,50,LP-HP,j,1332,HP,no-win
125,39,male,English,exp,4,52,exp,no,461,mixed,f,686,loss,0,513,0.6,30,0.4,50,LP-HP,j,2607,HP,no-win
125,39,male,English,exp,5,2,exp,yes,915,mixed,f,521,win,0,594,0.7,20,0.3,30,LP-HP,j,598,HP,win
125,39,male,English,exp,5,4,catch,no,1473,mixed,j,966,win,0,1719,0.7,10,0.6,50,HP-LP,j,805,LP,win
125,39,male,English,exp,5,6,exp,no,652,mixed,j,942,loss,0,147,0.6,30,0.4,50,HP-LP,f,1093,HP,win
125,39,male,English,exp,5,8,exp,no,514,mixed,j,826,win,0,188,0.6,20,0.4,50,HP-LP,j,838,LP,win
125,39,male,English,exp,5,10,exp,no,438,mixed,f,645,loss,0,80,0.7,30,0.3,40,LP-HP,j,797,HP,no-win
125,39,male,English,exp,5,12,catch,yes,133,mixed,j,478,win,0,488,0.7,10,0.6,50,LP-HP,f,1085,LP,win
125,39,male,English,exp,5,14,exp,yes,545,mixed,j,814,win,1,498,0.6,40,0.4,50,HP-LP,f,997,HP,win
125,39,male,English,exp,5,16,exp,no,484,mixed,j,601,win,0,185,0.8,10,0.2,20,LP-HP,j,715,HP,win
125,39,male,English,exp,5,18,exp,yes,526,mixed,j,629,win,0,506,0.8,20,0.2,30,HP-LP,f,718,HP,no-win
125,39,male,English,exp,5,20,exp,no,439,mixed,j,506,win,0,469,0.7,10,0.3,30,HP-LP,f,1078,HP,win
125,39,male,English,exp,5,22,exp,no,489,mixed,j,510,win,0,662,0.8,20,0.2,30,LP-HP,j,1029,HP,win
125,39,male,English,exp,5,24,exp,yes,544,mixed,j,622,win,1,874,0.7,30,0.3,40,LP-HP,j,909,HP,win
125,39,male,English,exp,5,26,catch,yes,528,mixed,j,725,loss,1,451,0.8,40,0.2,20,LP-HP,j,645,HP,win
125,39,male,English,exp,5,28,exp,no,2995,mixed,j,1029,win,0,572,0.6,20,0.4,50,LP-HP,f,997,LP,win
125,39,male,English,exp,5,30,exp,yes,853,mixed,j,693,win,1,415,0.6,40,0.4,50,LP-HP,j,833,HP,win
125,39,male,English,exp,5,32,catch,no,505,mixed,j,775,loss,0,160,0.8,50,0.2,30,HP-LP,f,677,HP,win
125,39,male,English,exp,5,34,exp,yes,481,mixed,j,821,loss,2,665,0.8,20,0.2,30,LP-HP,j,597,HP,win
125,39,male,English,exp,5,36,exp,no,569,mixed,j,707,win,0,440,0.6,30,0.4,50,LP-HP,j,1565,HP,win
125,39,male,English,exp,5,38,exp,yes,597,mixed,f,709,loss,1,472,0.6,40,0.4,50,LP-HP,j,716,HP,no-win
125,39,male,English,exp,5,40,catch,yes,68,mixed,j,954,loss,2,451,0.6,10,0.5,50,LP-HP,f,1149,LP,win
125,39,male,English,exp,5,42,catch,no,622,mixed,j,1398,loss,0,320,0.7,10,0.6,50,LP-HP,f,853,LP,win
125,39,male,English,exp,5,44,exp,yes,685,mixed,j,766,loss,0,1190,0.6,20,0.4,50,HP-LP,f,805,HP,win
125,39,male,English,exp,5,46,exp,no,688,mixed,f,950,win,0,479,0.8,10,0.2,20,HP-LP,f,885,HP,win
125,39,male,English,exp,5,48,exp,no,551,mixed,j,621,loss,0,105,0.8,20,0.2,30,HP-LP,f,766,HP,win
125,39,male,English,exp,5,50,exp,yes,602,mixed,j,751,loss,0,482,0.7,20,0.3,30,LP-HP,j,753,HP,win
125,39,male,English,exp,5,52,exp,no,499,mixed,f,632,loss,0,562,0.7,20,0.3,30,LP-HP,j,660,HP,win
125,39,male,English,exp,6,2,exp,no,2506,mixed,j,526,win,0,104,0.7,10,0.3,50,HP-LP,f,678,HP,win
125,39,male,English,exp,6,4,catch,yes,422,mixed,j,549,win,1,418,0.8,40,0.2,20,HP-LP,f,615,HP,win
125,39,male,English,exp,6,6,exp,yes,487,mixed,j,813,win,0,552,0.6,30,0.4,50,LP-HP,j,966,HP,win
125,39,male,English,exp,6,8,exp,yes,715,mixed,j,677,win,0,508,0.7,10,0.3,30,HP-LP,f,1136,HP,win
125,39,male,English,exp,6,10,exp,yes,2803,mixed,j,507,loss,2,445,0.8,20,0.2,30,HP-LP,f,686,HP,win
125,39,male,English,exp,6,12,exp,no,596,mixed,j,518,loss,0,93,0.6,20,0.4,50,LP-HP,j,718,HP,no-win
125,39,male,English,exp,6,14,exp,yes,439,mixed,f,670,win,0,534,0.6,10,0.4,40,HP-LP,j,1061,LP,no-win
125,39,male,English,exp,6,16,exp,yes,320,mixed,f,567,loss,1,496,0.8,10,0.2,20,LP-HP,j,610,HP,win
125,39,male,English,exp,6,18,exp,yes,514,mixed,j,524,loss,1,500,0.7,10,0.3,50,HP-LP,j,1078,LP,win
125,39,male,English,exp,6,20,catch,no,24,mixed,f,1096,loss,0,114,0.6,10,0.5,50,HP-LP,j,477,LP,win
125,39,male,English,exp,6,22,exp,no,448,mixed,f,453,win,0,275,0.6,30,0.4,50,HP-LP,j,1118,LP,no-win
125,39,male,English,exp,6,24,exp,yes,479,mixed,f,454,loss,2,1109,0.8,10,0.2,20,HP-LP,f,630,HP,win
125,39,male,English,exp,6,26,catch,no,656,mixed,j,566,loss,0,203,0.8,40,0.2,20,HP-LP,f,597,HP,win
125,39,male,English,exp,6,28,exp,no,634,mixed,f,745,win,0,508,0.7,20,0.3,30,HP-LP,f,934,HP,win
125,39,male,English,exp,6,30,exp,yes,1436,mixed,f,654,loss,0,437,0.6,10,0.4,40,HP-LP,j,380,LP,no-win
125,39,male,English,exp,6,32,exp,no,1193,mixed,f,422,win,0,512,0.7,10,0.3,30,LP-HP,f,1038,LP,win
125,39,male,English,exp,6,34,exp,no,722,mixed,j,534,loss,0,1368,0.6,40,0.4,50,LP-HP,j,797,HP,win
125,39,male,English,exp,6,36,catch,yes,1498,mixed,f,582,win,1,504,0.8,50,0.2,30,HP-LP,f,647,HP,no-win
125,39,male,English,exp,6,38,catch,no,449,mixed,f,526,win,0,587,0.6,10,0.5,50,LP-HP,f,653,LP,win
125,39,male,English,exp,6,40,exp,yes,435,mixed,f,782,loss,1,513,0.7,30,0.3,40,HP-LP,f,885,HP,win
125,39,male,English,exp,6,42,catch,yes,537,mixed,j,524,loss,1,704,0.7,30,0.3,10,HP-LP,f,669,HP,no-win
125,39,male,English,exp,6,44,exp,no,493,mixed,j,558,win,0,439,0.7,30,0.3,40,HP-LP,f,822,HP,no-win
125,39,male,English,exp,6,46,exp,no,1077,mixed,j,398,win,0,87,0.7,30,0.3,40,LP-HP,j,886,HP,win
125,39,male,English,exp,6,48,exp,yes,434,mixed,j,710,loss,1,560,0.7,10,0.3,30,HP-LP,f,1086,HP,win
125,39,male,English,exp,6,50,exp,no,403,mixed,j,526,loss,1,956,0.7,10,0.3,30,HP-LP,f,390,HP,no-win
125,39,male,English,exp,6,52,exp,no,472,mixed,f,814,loss,1,91,0.8,10,0.2,20,LP-HP,j,705,HP,no-win
