subject_ID,age,gender,nationality,exp_part,block_number,trial_number,trial_type,delay,game1_startRT,game1_color,game1_respKey,game1_respRT,game1_outcome,game2_delay_premature,game2_startRT,game2_HP_prob,game2_HP_amount,game2_LP_prob,game2_LP_amount,game2_pos,game2_respKey,game2_respRT,game2_choice,game2_outcome
217,23,female,Spanish,practice_game1,1,1,practice,na,1481,mixed,f,2183,win,0,0,0,0,0,0,na,na,0,na,na
217,23,female,Spanish,practice_game1,1,2,practice,na,1072,mixed,f,1041,loss,0,0,0,0,0,0,na,na,0,na,na
217,23,female,Spanish,practice_game1,1,3,practice,na,1047,mixed,f,714,win,0,0,0,0,0,0,na,na,0,na,na
217,23,female,Spanish,practice_game1,1,4,practice,na,667,mixed,j,341,loss,0,0,0,0,0,0,na,na,0,na,na
217,23,female,Spanish,practice_game2,2,1,practice,na,0,na,na,0,na,0,892,0.8,20,0.2,30,LP-HP,j,1213,HP,win
217,23,female,Spanish,practice_game2,2,2,practice,na,0,na,na,0,na,0,570,0.8,50,0.4,20,HP-LP,f,1413,HP,win
217,23,female,Spanish,practice_game2,2,3,practice,na,0,na,na,0,na,0,624,0.8,10,0.2,20,HP-LP,f,1368,HP,win
217,23,female,Spanish,practice_game2,2,4,practice,na,0,na,na,0,na,0,710,0.6,10,0.4,40,LP-HP,j,3120,HP,win
217,23,female,Spanish,practice_game2,2,5,practice,na,0,na,na,0,na,0,734,0.7,10,0.3,50,HP-LP,f,2097,HP,no-win
217,23,female,Spanish,exp,3,2,exp,no,1464,mixed,f,945,win,0,634,0.7,10,0.3,50,HP-LP,j,409,LP,no-win
217,23,female,Spanish,exp,3,4,exp,no,708,mixed,j,998,loss,0,629,0.6,40,0.4,50,HP-LP,f,1185,HP,win
217,23,female,Spanish,exp,3,6,exp,yes,811,mixed,f,1189,loss,0,426,0.8,20,0.2,30,LP-HP,j,1275,HP,win
217,23,female,Spanish,exp,3,8,exp,no,632,mixed,j,1815,loss,0,539,0.8,10,0.2,20,HP-LP,f,937,HP,win
217,23,female,Spanish,exp,3,10,catch,yes,426,mixed,f,302,win,0,457,0.8,40,0.2,20,HP-LP,f,919,HP,win
217,23,female,Spanish,exp,3,12,exp,yes,355,mixed,j,375,win,0,457,0.7,30,0.3,40,LP-HP,j,1158,HP,win
217,23,female,Spanish,exp,3,14,exp,yes,357,mixed,f,396,loss,0,1523,0.6,30,0.4,50,LP-HP,j,983,HP,win
217,23,female,Spanish,exp,3,16,exp,no,596,mixed,f,639,win,0,699,0.8,10,0.2,20,HP-LP,f,903,HP,win
217,23,female,Spanish,exp,3,18,exp,no,519,mixed,j,462,win,0,486,0.6,40,0.4,50,LP-HP,j,1016,HP,no-win
217,23,female,Spanish,exp,3,20,exp,no,391,mixed,f,457,win,0,368,0.6,20,0.4,50,HP-LP,f,1810,HP,no-win
217,23,female,Spanish,exp,3,22,catch,no,549,mixed,j,453,loss,0,522,0.8,50,0.2,30,LP-HP,j,617,HP,win
217,23,female,Spanish,exp,3,24,exp,yes,461,mixed,j,841,loss,0,401,0.6,10,0.4,40,HP-LP,f,1377,HP,no-win
217,23,female,Spanish,exp,3,26,catch,no,762,mixed,j,1082,loss,0,449,0.7,10,0.6,50,LP-HP,f,1168,LP,win
217,23,female,Spanish,exp,3,28,exp,yes,333,mixed,f,260,win,0,314,0.6,30,0.4,50,HP-LP,f,1053,HP,win
217,23,female,Spanish,exp,3,30,catch,yes,344,mixed,j,240,loss,1,417,0.8,40,0.2,20,LP-HP,j,598,HP,win
217,23,female,Spanish,exp,3,32,exp,no,400,mixed,f,244,loss,0,464,0.8,10,0.2,20,LP-HP,j,941,HP,win
217,23,female,Spanish,exp,3,34,exp,no,320,mixed,f,655,loss,0,315,0.7,30,0.3,40,HP-LP,f,774,HP,no-win
217,23,female,Spanish,exp,3,36,exp,yes,270,mixed,j,205,loss,0,379,0.6,40,0.4,50,HP-LP,f,789,HP,no-win
217,23,female,Spanish,exp,3,38,exp,yes,330,mixed,f,729,loss,1,347,0.6,10,0.4,40,LP-HP,j,1231,HP,win
217,23,female,Spanish,exp,3,40,exp,yes,360,mixed,f,2594,loss,0,669,0.7,10,0.3,30,HP-LP,f,1350,HP,no-win
217,23,female,Spanish,exp,3,42,exp,no,285,mixed,j,201,loss,0,431,0.7,10,0.3,30,LP-HP,j,1048,HP,win
217,23,female,Spanish,exp,3,44,exp,no,378,mixed,f,246,loss,0,260,0.8,20,0.2,30,LP-HP,j,658,HP,win
217,23,female,Spanish,exp,3,46,exp,yes,860,mixed,f,216,win,1,305,0.7,20,0.3,30,HP-LP,f,1094,HP,win
217,23,female,Spanish,exp,3,48,catch,no,346,mixed,j,1016,win,0,96,0.8,50,0.2,30,HP-LP,f,800,HP,no-win
217,23,female,Spanish,exp,3,50,catch,no,777,mixed,j,966,loss,1,366,0.6,10,0.5,50,HP-LP,j,2193,LP,no-win
217,23,female,Spanish,exp,3,52,exp,no,417,mixed,f,513,win,0,56,0.6,30,0.4,50,LP-HP,j,1091,HP,win
217,23,female,Spanish,exp,4,2,exp,no,609,mixed,f,844,win,0,516,0.6,10,0.4,40,HP-LP,f,1418,HP,win
217,23,female,Spanish,exp,4,4,exp,no,449,mixed,j,495,win,1,781,0.6,30,0.4,50,HP-LP,f,1469,HP,win
217,23,female,Spanish,exp,4,6,exp,yes,395,mixed,f,1374,loss,0,530,0.6,20,0.4,50,LP-HP,j,923,HP,win
217,23,female,Spanish,exp,4,8,catch,yes,398,mixed,f,205,win,1,435,0.7,10,0.6,50,LP-HP,f,1528,LP,win
217,23,female,Spanish,exp,4,10,catch,yes,431,mixed,j,257,loss,0,507,0.7,30,0.3,10,HP-LP,f,1172,HP,no-win
217,23,female,Spanish,exp,4,12,exp,yes,579,mixed,f,380,win,1,343,0.6,30,0.4,50,LP-HP,j,945,HP,win
217,23,female,Spanish,exp,4,14,catch,yes,368,mixed,f,217,loss,1,473,0.8,50,0.2,30,HP-LP,f,686,HP,win
217,23,female,Spanish,exp,4,16,exp,no,458,mixed,j,584,win,0,31,0.7,10,0.3,50,LP-HP,j,698,HP,win
217,23,female,Spanish,exp,4,18,catch,no,457,mixed,f,170,loss,0,544,0.8,10,0.7,50,HP-LP,j,1538,LP,no-win
217,23,female,Spanish,exp,4,20,catch,yes,538,mixed,f,814,win,1,400,0.6,10,0.5,50,HP-LP,j,818,LP,no-win
217,23,female,Spanish,exp,4,22,exp,yes,327,mixed,j,390,loss,0,575,0.6,30,0.4,50,HP-LP,f,1327,HP,no-win
217,23,female,Spanish,exp,4,24,exp,yes,553,mixed,f,422,win,0,364,0.6,10,0.4,40,LP-HP,j,1209,HP,win
217,23,female,Spanish,exp,4,26,exp,no,389,mixed,f,456,loss,0,347,0.6,30,0.4,50,LP-HP,j,826,HP,no-win
217,23,female,Spanish,exp,4,28,catch,no,353,mixed,f,267,win,0,107,0.7,30,0.3,10,HP-LP,f,847,HP,win
217,23,female,Spanish,exp,4,30,exp,no,405,mixed,j,552,win,0,13,0.7,20,0.3,30,HP-LP,f,1098,HP,win
217,23,female,Spanish,exp,4,32,exp,yes,533,mixed,f,621,win,1,476,0.7,30,0.3,40,HP-LP,f,732,HP,win
217,23,female,Spanish,exp,4,34,exp,no,330,mixed,j,181,win,0,360,0.7,10,0.3,30,LP-HP,j,959,HP,no-win
217,23,female,Spanish,exp,4,36,exp,yes,295,mixed,f,140,win,0,575,0.7,10,0.3,50,HP-LP,f,664,HP,no-win
217,23,female,Spanish,exp,4,38,exp,no,440,mixed,j,190,win,0,420,0.6,20,0.4,50,LP-HP,j,837,HP,win
217,23,female,Spanish,exp,4,40,exp,yes,328,mixed,f,141,win,0,520,0.8,20,0.2,30,HP-LP,f,695,HP,win
217,23,female,Spanish,exp,4,42,exp,no,370,mixed,j,195,win,0,411,0.6,40,0.4,50,HP-LP,f,837,HP,win
217,23,female,Spanish,exp,4,44,exp,yes,2603,mixed,f,216,win,0,614,0.6,20,0.4,50,HP-LP,f,1102,HP,win
217,23,female,Spanish,exp,4,46,exp,yes,323,mixed,j,225,loss,1,343,0.7,20,0.3,30,LP-HP,j,680,HP,win
217,23,female,Spanish,exp,4,48,exp,no,403,mixed,f,176,loss,0,546,0.7,10,0.3,30,HP-LP,f,653,HP,win
217,23,female,Spanish,exp,4,50,exp,no,534,mixed,f,314,loss,0,303,0.7,10,0.3,50,HP-LP,f,608,HP,win
217,23,female,Spanish,exp,4,52,exp,no,425,mixed,j,173,win,0,339,0.6,10,0.4,40,LP-HP,j,1019,HP,no-win
217,23,female,Spanish,exp,5,2,exp,no,974,mixed,f,885,win,0,464,0.7,10,0.3,30,HP-LP,f,579,HP,win
217,23,female,Spanish,exp,5,4,exp,yes,356,mixed,j,692,loss,1,464,0.8,20,0.2,30,HP-LP,f,579,HP,win
217,23,female,Spanish,exp,5,6,exp,yes,312,mixed,j,569,win,1,404,0.6,20,0.4,50,LP-HP,f,1565,LP,win
217,23,female,Spanish,exp,5,8,exp,no,371,mixed,f,1539,loss,0,197,0.7,20,0.3,30,LP-HP,j,599,HP,win
217,23,female,Spanish,exp,5,10,exp,no,539,mixed,f,374,win,0,46,0.8,10,0.2,20,LP-HP,j,724,HP,win
217,23,female,Spanish,exp,5,12,exp,yes,574,mixed,j,168,loss,2,419,0.7,20,0.3,30,HP-LP,f,584,HP,win
217,23,female,Spanish,exp,5,14,exp,yes,374,mixed,f,188,loss,0,416,0.7,30,0.3,40,HP-LP,f,784,HP,no-win
217,23,female,Spanish,exp,5,16,catch,yes,387,mixed,f,155,loss,0,543,0.8,10,0.7,50,LP-HP,f,840,LP,no-win
217,23,female,Spanish,exp,5,18,exp,no,379,mixed,j,271,loss,0,507,0.7,20,0.3,30,HP-LP,f,647,HP,no-win
217,23,female,Spanish,exp,5,20,exp,yes,367,mixed,f,114,loss,0,517,0.7,10,0.3,50,HP-LP,f,807,HP,win
217,23,female,Spanish,exp,5,22,exp,yes,704,mixed,f,131,win,0,501,0.6,40,0.4,50,LP-HP,j,682,HP,win
217,23,female,Spanish,exp,5,24,exp,yes,276,mixed,f,905,loss,0,634,0.6,20,0.4,50,HP-LP,f,791,HP,no-win
217,23,female,Spanish,exp,5,26,catch,no,365,mixed,j,689,loss,0,839,0.8,40,0.2,20,HP-LP,f,818,HP,win
217,23,female,Spanish,exp,5,28,catch,yes,295,mixed,f,115,loss,0,527,0.7,10,0.6,50,HP-LP,f,1058,HP,win
217,23,female,Spanish,exp,5,30,exp,no,390,mixed,f,127,loss,0,357,0.8,20,0.2,30,HP-LP,f,674,HP,no-win
217,23,female,Spanish,exp,5,32,catch,yes,414,mixed,f,798,win,1,436,0.7,30,0.3,10,LP-HP,j,732,HP,no-win
217,23,female,Spanish,exp,5,34,catch,no,456,mixed,f,257,win,0,204,0.6,10,0.5,50,LP-HP,f,1831,LP,win
217,23,female,Spanish,exp,5,36,exp,no,337,mixed,f,152,loss,0,386,0.7,10,0.3,50,LP-HP,j,767,HP,win
217,23,female,Spanish,exp,5,38,catch,no,257,mixed,f,131,win,0,361,0.8,40,0.2,20,LP-HP,j,656,HP,win
217,23,female,Spanish,exp,5,40,exp,no,320,mixed,f,116,loss,0,514,0.6,20,0.4,50,HP-LP,f,815,HP,win
217,23,female,Spanish,exp,5,42,exp,yes,481,mixed,f,607,loss,0,502,0.8,10,0.2,20,LP-HP,j,556,HP,win
217,23,female,Spanish,exp,5,44,exp,yes,403,mixed,f,523,win,1,471,0.8,20,0.2,30,LP-HP,j,588,HP,win
217,23,female,Spanish,exp,5,46,exp,yes,391,mixed,f,109,win,0,517,0.7,10,0.3,50,LP-HP,j,516,HP,win
217,23,female,Spanish,exp,5,48,exp,yes,494,mixed,f,418,loss,0,443,0.7,10,0.3,50,LP-HP,j,554,HP,win
217,23,female,Spanish,exp,5,50,exp,no,582,mixed,f,175,win,0,369,0.7,30,0.3,40,LP-HP,j,747,HP,win
217,23,female,Spanish,exp,5,52,exp,no,415,mixed,f,191,loss,0,425,0.6,30,0.4,50,HP-LP,f,748,HP,no-win
217,23,female,Spanish,exp,6,2,exp,yes,636,mixed,f,1341,loss,1,722,0.6,40,0.4,50,LP-HP,j,933,HP,win
217,23,female,Spanish,exp,6,4,exp,no,342,mixed,f,141,win,0,19,0.8,20,0.2,30,LP-HP,j,653,HP,win
217,23,female,Spanish,exp,6,6,catch,yes,347,mixed,f,194,loss,0,479,0.6,10,0.5,50,LP-HP,f,849,LP,win
217,23,female,Spanish,exp,6,8,catch,no,452,mixed,f,733,loss,0,451,0.7,30,0.3,10,LP-HP,j,544,HP,no-win
217,23,female,Spanish,exp,6,10,exp,yes,869,mixed,f,699,win,0,724,0.7,20,0.3,30,LP-HP,j,673,HP,no-win
217,23,female,Spanish,exp,6,12,exp,no,657,mixed,f,582,win,0,530,0.7,20,0.3,30,LP-HP,j,596,HP,win
217,23,female,Spanish,exp,6,14,catch,yes,648,mixed,f,177,win,0,435,0.8,10,0.7,50,HP-LP,j,1059,LP,no-win
217,23,female,Spanish,exp,6,16,exp,yes,421,mixed,f,275,win,0,501,0.7,10,0.3,30,HP-LP,f,724,HP,no-win
217,23,female,Spanish,exp,6,18,exp,no,561,mixed,f,779,loss,0,633,0.7,30,0.3,40,LP-HP,j,590,HP,win
217,23,female,Spanish,exp,6,20,exp,yes,903,mixed,f,589,win,0,386,0.8,10,0.2,20,HP-LP,f,587,HP,win
217,23,female,Spanish,exp,6,22,exp,no,1061,mixed,f,571,win,0,326,0.7,30,0.3,40,HP-LP,f,644,HP,no-win
217,23,female,Spanish,exp,6,24,exp,no,373,mixed,f,535,loss,0,320,0.6,10,0.4,40,LP-HP,j,815,HP,win
217,23,female,Spanish,exp,6,26,exp,no,440,mixed,f,504,loss,0,356,0.6,40,0.4,50,LP-HP,j,583,HP,no-win
217,23,female,Spanish,exp,6,28,exp,yes,733,mixed,f,470,win,1,416,0.7,10,0.3,30,LP-HP,j,702,HP,no-win
217,23,female,Spanish,exp,6,30,exp,yes,425,mixed,f,323,win,0,471,0.6,40,0.4,50,HP-LP,f,1019,HP,win
217,23,female,Spanish,exp,6,32,catch,yes,563,mixed,f,492,win,1,409,0.8,50,0.2,30,LP-HP,j,546,HP,win
217,23,female,Spanish,exp,6,34,exp,yes,296,mixed,f,378,loss,0,506,0.7,30,0.3,40,LP-HP,j,533,HP,win
217,23,female,Spanish,exp,6,36,exp,yes,696,mixed,f,471,win,0,501,0.6,10,0.4,40,HP-LP,f,1064,HP,win
217,23,female,Spanish,exp,6,38,exp,yes,757,mixed,f,535,loss,1,865,0.8,10,0.2,20,HP-LP,f,490,HP,win
217,23,female,Spanish,exp,6,40,exp,no,856,mixed,f,535,loss,0,187,0.6,10,0.4,40,HP-LP,f,913,HP,win
217,23,female,Spanish,exp,6,42,exp,no,489,mixed,f,469,loss,0,452,0.6,20,0.4,50,LP-HP,j,567,HP,no-win
217,23,female,Spanish,exp,6,44,catch,no,466,mixed,f,384,win,0,261,0.7,10,0.6,50,HP-LP,f,405,HP,no-win
217,23,female,Spanish,exp,6,46,catch,no,377,mixed,f,532,win,1,441,0.8,10,0.7,50,LP-HP,f,715,LP,win
217,23,female,Spanish,exp,6,48,exp,no,289,mixed,f,519,win,0,65,0.8,20,0.2,30,HP-LP,f,718,HP,win
217,23,female,Spanish,exp,6,50,exp,yes,318,mixed,f,159,win,2,396,0.8,10,0.2,20,LP-HP,j,626,HP,no-win
217,23,female,Spanish,exp,6,52,exp,yes,386,mixed,f,356,loss,0,528,0.7,10,0.3,30,LP-HP,j,1237,HP,win
