subject_ID,age,gender,nationality,exp_part,block_number,trial_number,trial_type,delay,game1_startRT,game1_color,game1_respKey,game1_respRT,game1_outcome,game2_delay_premature,game2_startRT,game2_HP_prob,game2_HP_amount,game2_LP_prob,game2_LP_amount,game2_pos,game2_respKey,game2_respRT,game2_choice,game2_outcome
231,31,female,Bulgarian,practice_game1,1,1,practice,na,1652,mixed,f,1334,loss,0,0,0,0,0,0,na,na,0,na,na
231,31,female,Bulgarian,practice_game1,1,2,practice,na,2826,mixed,j,1821,win,0,0,0,0,0,0,na,na,0,na,na
231,31,female,Bulgarian,practice_game1,1,3,practice,na,1026,mixed,j,1408,win,0,0,0,0,0,0,na,na,0,na,na
231,31,female,Bulgarian,practice_game1,1,4,practice,na,1166,mixed,j,1191,loss,0,0,0,0,0,0,na,na,0,na,na
231,31,female,Bulgarian,practice_game2,2,1,practice,na,0,na,na,0,na,0,1252,0.8,10,0.2,20,LP-HP,j,1981,HP,no-win
231,31,female,Bulgarian,practice_game2,2,2,practice,na,0,na,na,0,na,0,649,0.6,10,0.4,40,HP-LP,f,1215,HP,win
231,31,female,Bulgarian,practice_game2,2,3,practice,na,0,na,na,0,na,0,712,0.8,50,0.4,20,HP-LP,f,1876,HP,win
231,31,female,Bulgarian,practice_game2,2,4,practice,na,0,na,na,0,na,0,1384,0.8,20,0.2,30,LP-HP,j,1459,HP,no-win
231,31,female,Bulgarian,practice_game2,2,5,practice,na,0,na,na,0,na,0,683,0.7,10,0.3,50,HP-LP,f,1166,HP,no-win
231,31,female,Bulgarian,exp,3,2,catch,yes,2451,mixed,j,1854,loss,0,1007,0.7,30,0.3,10,HP-LP,f,1703,HP,win
231,31,female,Bulgarian,exp,3,4,exp,no,852,mixed,j,1189,win,0,2365,0.7,10,0.3,50,LP-HP,j,1630,HP,win
231,31,female,Bulgarian,exp,3,6,catch,yes,1821,mixed,j,1272,loss,0,520,0.8,10,0.7,50,LP-HP,f,1765,LP,no-win
231,31,female,Bulgarian,exp,3,8,catch,yes,937,mixed,j,1812,loss,0,629,0.8,40,0.2,20,LP-HP,j,1079,HP,win
231,31,female,Bulgarian,exp,3,10,exp,no,4590,mixed,f,845,loss,0,722,0.7,10,0.3,50,HP-LP,f,1453,HP,win
231,31,female,Bulgarian,exp,3,12,exp,yes,778,mixed,j,1571,win,1,1006,0.6,20,0.4,50,HP-LP,f,1758,HP,win
231,31,female,Bulgarian,exp,3,14,catch,yes,1026,mixed,j,1121,loss,0,1217,0.8,50,0.2,30,HP-LP,f,782,HP,win
231,31,female,Bulgarian,exp,3,16,exp,no,2296,mixed,j,1108,loss,0,1621,0.6,30,0.4,50,LP-HP,j,2076,HP,no-win
231,31,female,Bulgarian,exp,3,18,exp,no,1299,mixed,f,1446,loss,0,768,0.8,10,0.2,20,LP-HP,j,982,HP,no-win
231,31,female,Bulgarian,exp,3,20,exp,yes,1440,mixed,j,1053,win,0,511,0.6,10,0.4,40,LP-HP,j,1557,HP,win
231,31,female,Bulgarian,exp,3,22,exp,yes,795,mixed,j,1874,win,0,573,0.8,10,0.2,20,HP-LP,f,790,HP,no-win
231,31,female,Bulgarian,exp,3,24,exp,no,1148,mixed,j,871,win,0,801,0.7,10,0.3,50,HP-LP,f,1109,HP,win
231,31,female,Bulgarian,exp,3,26,catch,no,978,mixed,j,975,win,0,2300,0.8,10,0.7,50,LP-HP,f,1188,LP,win
231,31,female,Bulgarian,exp,3,28,exp,no,1142,mixed,f,1334,loss,0,617,0.6,20,0.4,50,LP-HP,j,1331,HP,no-win
231,31,female,Bulgarian,exp,3,30,exp,no,600,mixed,j,970,win,0,709,0.7,20,0.3,30,LP-HP,j,941,HP,win
231,31,female,Bulgarian,exp,3,32,exp,no,741,mixed,j,1031,win,0,1567,0.7,10,0.3,30,LP-HP,j,1287,HP,win
231,31,female,Bulgarian,exp,3,34,exp,yes,900,mixed,f,1215,loss,0,163,0.6,10,0.4,40,HP-LP,j,1522,LP,no-win
231,31,female,Bulgarian,exp,3,36,exp,no,921,mixed,j,839,loss,0,680,0.6,40,0.4,50,HP-LP,f,991,HP,win
231,31,female,Bulgarian,exp,3,38,exp,yes,800,mixed,j,938,loss,4,545,0.7,30,0.3,40,HP-LP,f,936,HP,win
231,31,female,Bulgarian,exp,3,40,exp,no,926,mixed,f,966,loss,0,327,0.8,20,0.2,30,LP-HP,j,762,HP,win
231,31,female,Bulgarian,exp,3,42,exp,yes,1191,mixed,j,886,loss,0,533,0.8,10,0.2,20,HP-LP,f,807,HP,win
231,31,female,Bulgarian,exp,3,44,exp,yes,882,mixed,j,2232,loss,0,675,0.7,10,0.3,30,HP-LP,f,1336,HP,win
231,31,female,Bulgarian,exp,3,46,exp,no,802,mixed,j,892,win,0,181,0.6,30,0.4,50,LP-HP,f,1622,LP,win
231,31,female,Bulgarian,exp,3,48,catch,no,1564,mixed,j,1216,loss,0,3,0.7,10,0.6,50,HP-LP,j,1295,LP,win
231,31,female,Bulgarian,exp,3,50,exp,yes,27,mixed,f,1218,win,1,607,0.6,10,0.4,40,HP-LP,j,1198,LP,win
231,31,female,Bulgarian,exp,3,52,exp,no,228,mixed,j,902,win,0,605,0.8,20,0.2,30,HP-LP,f,1065,HP,win
231,31,female,Bulgarian,exp,4,2,exp,yes,905,mixed,j,766,win,0,563,0.6,40,0.4,50,LP-HP,j,1269,HP,win
231,31,female,Bulgarian,exp,4,4,exp,no,406,mixed,j,901,loss,0,619,0.8,10,0.2,20,HP-LP,f,1011,HP,no-win
231,31,female,Bulgarian,exp,4,6,catch,no,512,mixed,j,685,loss,0,370,0.6,10,0.5,50,LP-HP,f,1014,LP,win
231,31,female,Bulgarian,exp,4,8,exp,yes,799,mixed,f,1069,loss,1,752,0.7,30,0.3,40,LP-HP,j,750,HP,win
231,31,female,Bulgarian,exp,4,10,exp,yes,749,mixed,j,892,win,1,579,0.8,10,0.2,20,LP-HP,j,758,HP,win
231,31,female,Bulgarian,exp,4,12,exp,yes,879,mixed,f,1654,loss,1,1182,0.7,10,0.3,50,HP-LP,f,1646,HP,win
231,31,female,Bulgarian,exp,4,14,exp,no,3488,mixed,j,1182,win,0,564,0.6,40,0.4,50,LP-HP,j,1156,HP,win
231,31,female,Bulgarian,exp,4,16,exp,no,987,mixed,f,1073,loss,0,522,0.7,10,0.3,30,LP-HP,j,1167,HP,win
231,31,female,Bulgarian,exp,4,18,catch,no,665,mixed,j,894,loss,0,560,0.8,50,0.2,30,LP-HP,j,1005,HP,win
231,31,female,Bulgarian,exp,4,20,exp,no,506,mixed,f,854,loss,0,556,0.7,10,0.3,30,HP-LP,f,1343,HP,no-win
231,31,female,Bulgarian,exp,4,22,catch,no,575,mixed,j,882,win,0,565,0.8,50,0.2,30,HP-LP,f,906,HP,win
231,31,female,Bulgarian,exp,4,24,exp,yes,770,mixed,j,838,win,0,639,0.7,20,0.3,30,LP-HP,j,1249,HP,win
231,31,female,Bulgarian,exp,4,26,exp,yes,833,mixed,j,1089,loss,0,707,0.6,30,0.4,50,LP-HP,f,1361,LP,win
231,31,female,Bulgarian,exp,4,28,catch,yes,927,mixed,j,902,loss,0,980,0.6,10,0.5,50,HP-LP,j,1375,LP,win
231,31,female,Bulgarian,exp,4,30,exp,yes,836,mixed,f,1151,win,0,957,0.7,10,0.3,50,LP-HP,j,1645,HP,no-win
231,31,female,Bulgarian,exp,4,32,exp,no,932,mixed,j,1038,win,0,2032,0.7,30,0.3,40,HP-LP,f,973,HP,no-win
231,31,female,Bulgarian,exp,4,34,catch,no,721,mixed,j,1221,win,0,652,0.8,40,0.2,20,LP-HP,j,918,HP,win
231,31,female,Bulgarian,exp,4,36,exp,no,1050,mixed,j,925,win,0,722,0.8,10,0.2,20,HP-LP,f,1251,HP,win
231,31,female,Bulgarian,exp,4,38,exp,no,757,mixed,f,1149,win,0,948,0.6,20,0.4,50,LP-HP,j,1742,HP,win
231,31,female,Bulgarian,exp,4,40,exp,no,841,mixed,j,870,win,0,892,0.6,10,0.4,40,HP-LP,j,1267,LP,win
231,31,female,Bulgarian,exp,4,42,exp,yes,3285,mixed,j,1263,win,1,824,0.7,30,0.3,40,HP-LP,f,1057,HP,no-win
231,31,female,Bulgarian,exp,4,44,exp,no,2845,mixed,j,805,win,0,805,0.6,30,0.4,50,HP-LP,f,1127,HP,no-win
231,31,female,Bulgarian,exp,4,46,exp,no,784,mixed,j,757,win,0,491,0.6,20,0.4,50,HP-LP,j,1439,LP,win
231,31,female,Bulgarian,exp,4,48,catch,yes,686,mixed,j,1021,win,0,1000,0.8,10,0.7,50,HP-LP,j,1150,LP,win
231,31,female,Bulgarian,exp,4,50,exp,yes,848,mixed,j,1175,loss,1,580,0.6,30,0.4,50,HP-LP,j,918,LP,no-win
231,31,female,Bulgarian,exp,4,52,exp,no,321,mixed,f,982,loss,0,889,0.6,10,0.4,40,HP-LP,j,1190,LP,no-win
231,31,female,Bulgarian,exp,5,2,catch,yes,740,mixed,j,789,loss,2,621,0.7,10,0.6,50,LP-HP,f,510,LP,win
231,31,female,Bulgarian,exp,5,4,exp,no,684,mixed,j,856,loss,0,174,0.7,30,0.3,40,HP-LP,f,886,HP,win
231,31,female,Bulgarian,exp,5,6,exp,yes,1494,mixed,j,813,loss,2,563,0.7,10,0.3,30,LP-HP,j,810,HP,win
231,31,female,Bulgarian,exp,5,8,catch,no,761,mixed,j,1086,win,0,49548,0.7,10,0.6,50,LP-HP,f,1558,LP,win
231,31,female,Bulgarian,exp,5,10,catch,no,627,mixed,j,951,loss,0,298,0.8,40,0.2,20,HP-LP,f,835,HP,win
231,31,female,Bulgarian,exp,5,12,exp,yes,691,mixed,f,952,loss,2,864,0.7,20,0.3,30,LP-HP,j,752,HP,win
231,31,female,Bulgarian,exp,5,14,exp,yes,664,mixed,j,871,loss,1,749,0.6,10,0.4,40,LP-HP,f,985,LP,no-win
231,31,female,Bulgarian,exp,5,16,exp,yes,632,mixed,j,765,loss,3,296,0.6,20,0.4,50,HP-LP,f,867,HP,win
231,31,female,Bulgarian,exp,5,18,catch,yes,1001,mixed,j,1723,win,1,655,0.8,50,0.2,30,LP-HP,j,844,HP,win
231,31,female,Bulgarian,exp,5,20,catch,no,23,mixed,j,962,loss,0,413,0.8,10,0.7,50,HP-LP,j,1023,LP,no-win
231,31,female,Bulgarian,exp,5,22,exp,no,675,mixed,j,780,loss,0,373,0.7,20,0.3,30,LP-HP,j,1335,HP,win
231,31,female,Bulgarian,exp,5,24,exp,no,1244,mixed,f,1083,win,0,695,0.8,10,0.2,20,LP-HP,j,710,HP,win
231,31,female,Bulgarian,exp,5,26,exp,yes,1924,mixed,j,1165,loss,0,337,0.8,20,0.2,30,LP-HP,j,1027,HP,no-win
231,31,female,Bulgarian,exp,5,28,exp,yes,351,mixed,j,784,win,0,2006,0.7,10,0.3,30,LP-HP,j,725,HP,win
231,31,female,Bulgarian,exp,5,30,exp,yes,2964,mixed,j,906,win,0,721,0.6,30,0.4,50,HP-LP,j,1398,LP,no-win
231,31,female,Bulgarian,exp,5,32,exp,yes,731,mixed,j,733,win,0,763,0.6,40,0.4,50,HP-LP,f,974,HP,no-win
231,31,female,Bulgarian,exp,5,34,exp,no,5544,mixed,j,741,loss,1,192,0.6,40,0.4,50,LP-HP,j,834,HP,win
231,31,female,Bulgarian,exp,5,36,exp,no,635,mixed,j,847,win,0,32,0.8,20,0.2,30,LP-HP,j,1025,HP,win
231,31,female,Bulgarian,exp,5,38,exp,no,507,mixed,j,742,win,0,342,0.6,10,0.4,40,LP-HP,f,1053,LP,no-win
231,31,female,Bulgarian,exp,5,40,catch,no,701,mixed,j,828,loss,0,591,0.7,30,0.3,10,LP-HP,j,733,HP,win
231,31,female,Bulgarian,exp,5,42,exp,yes,558,mixed,f,873,win,0,747,0.7,30,0.3,40,LP-HP,j,811,HP,win
231,31,female,Bulgarian,exp,5,44,exp,no,706,mixed,j,872,win,0,593,0.7,10,0.3,30,HP-LP,f,1563,HP,no-win
231,31,female,Bulgarian,exp,5,46,exp,no,687,mixed,j,854,loss,1,797,0.6,10,0.4,40,LP-HP,f,1141,LP,no-win
231,31,female,Bulgarian,exp,5,48,exp,yes,2645,mixed,j,1274,loss,2,627,0.7,20,0.3,30,HP-LP,f,894,HP,win
231,31,female,Bulgarian,exp,5,50,exp,yes,700,mixed,j,822,loss,2,550,0.8,10,0.2,20,LP-HP,j,758,HP,win
231,31,female,Bulgarian,exp,5,52,exp,yes,753,mixed,j,777,loss,1,494,0.6,20,0.4,50,LP-HP,f,1069,LP,no-win
231,31,female,Bulgarian,exp,6,2,catch,yes,1428,mixed,j,775,win,1,829,0.7,10,0.6,50,HP-LP,j,964,LP,no-win
231,31,female,Bulgarian,exp,6,4,exp,yes,726,mixed,j,990,win,1,488,0.6,20,0.4,50,LP-HP,f,1016,LP,win
231,31,female,Bulgarian,exp,6,6,exp,yes,815,mixed,j,1539,win,1,943,0.8,20,0.2,30,HP-LP,f,952,HP,no-win
231,31,female,Bulgarian,exp,6,8,exp,no,567,mixed,j,797,win,1,1001,0.7,20,0.3,30,HP-LP,f,902,HP,win
231,31,female,Bulgarian,exp,6,10,exp,no,854,mixed,f,1287,win,0,709,0.7,30,0.3,40,LP-HP,j,795,HP,no-win
231,31,female,Bulgarian,exp,6,12,exp,no,652,mixed,j,739,loss,0,887,0.8,20,0.2,30,HP-LP,f,1197,HP,win
231,31,female,Bulgarian,exp,6,14,exp,yes,848,mixed,j,686,win,1,1257,0.8,20,0.2,30,LP-HP,j,760,HP,win
231,31,female,Bulgarian,exp,6,16,catch,no,965,mixed,j,701,win,0,357,0.6,10,0.5,50,HP-LP,j,1126,LP,win
231,31,female,Bulgarian,exp,6,18,exp,no,633,mixed,j,965,loss,0,528,0.7,10,0.3,50,LP-HP,j,751,HP,win
231,31,female,Bulgarian,exp,6,20,exp,no,651,mixed,f,1150,win,0,456,0.6,40,0.4,50,HP-LP,f,1086,HP,no-win
231,31,female,Bulgarian,exp,6,22,exp,yes,742,mixed,j,789,loss,2,150,0.6,40,0.4,50,HP-LP,f,918,HP,win
231,31,female,Bulgarian,exp,6,24,exp,no,1009,mixed,j,866,loss,0,520,0.7,20,0.3,30,HP-LP,f,1005,HP,win
231,31,female,Bulgarian,exp,6,26,exp,no,799,mixed,j,919,loss,0,253,0.6,20,0.4,50,HP-LP,f,919,HP,no-win
231,31,female,Bulgarian,exp,6,28,exp,yes,539,mixed,j,851,win,0,974,0.7,10,0.3,50,HP-LP,f,1799,HP,win
231,31,female,Bulgarian,exp,6,30,catch,yes,3591,mixed,j,2202,win,1,909,0.7,30,0.3,10,LP-HP,j,1146,HP,no-win
231,31,female,Bulgarian,exp,6,32,exp,yes,93,mixed,j,1651,win,0,1286,0.6,30,0.4,50,LP-HP,f,1293,LP,no-win
231,31,female,Bulgarian,exp,6,34,catch,yes,1073,mixed,j,797,win,1,784,0.6,10,0.5,50,LP-HP,f,1067,LP,win
231,31,female,Bulgarian,exp,6,36,exp,yes,5028,mixed,j,2350,win,0,901,0.7,20,0.3,30,HP-LP,f,901,HP,win
231,31,female,Bulgarian,exp,6,38,exp,no,1216,mixed,j,773,loss,0,562,0.7,30,0.3,40,LP-HP,j,1042,HP,no-win
231,31,female,Bulgarian,exp,6,40,catch,yes,756,mixed,f,3707,win,1,520,0.8,40,0.2,20,HP-LP,f,923,HP,win
231,31,female,Bulgarian,exp,6,42,exp,yes,1335,mixed,j,2105,loss,1,542,0.7,10,0.3,50,LP-HP,f,3395,LP,no-win
231,31,female,Bulgarian,exp,6,44,exp,yes,2865,mixed,f,2710,loss,2,1300,0.6,40,0.4,50,LP-HP,j,3343,HP,win
231,31,female,Bulgarian,exp,6,46,exp,yes,709,mixed,j,782,loss,0,658,0.8,20,0.2,30,HP-LP,f,892,HP,win
231,31,female,Bulgarian,exp,6,48,exp,no,947,mixed,j,1435,loss,0,333,0.6,30,0.4,50,HP-LP,f,1030,HP,win
231,31,female,Bulgarian,exp,6,50,exp,yes,990,mixed,f,918,win,1,765,0.7,10,0.3,30,HP-LP,f,943,HP,no-win
231,31,female,Bulgarian,exp,6,52,catch,no,569,mixed,f,3438,win,1,568,0.7,30,0.3,10,HP-LP,f,899,HP,win
