subject_ID,age,gender,nationality,exp_part,block_number,trial_number,trial_type,delay,game1_startRT,game1_color,game1_respKey,game1_respRT,game1_outcome,game2_delay_premature,game2_startRT,game2_HP_prob,game2_HP_amount,game2_LP_prob,game2_LP_amount,game2_pos,game2_respKey,game2_respRT,game2_choice,game2_outcome
230,21,male,British,practice_game1,1,1,practice,na,1327,mixed,f,6128,loss,0,0,0,0,0,0,na,na,0,na,na
230,21,male,British,practice_game1,1,2,practice,na,2635,mixed,f,1338,win,0,0,0,0,0,0,na,na,0,na,na
230,21,male,British,practice_game1,1,3,practice,na,1973,mixed,f,3855,loss,0,0,0,0,0,0,na,na,0,na,na
230,21,male,British,practice_game1,1,4,practice,na,1433,mixed,f,2648,win,0,0,0,0,0,0,na,na,0,na,na
230,21,male,British,practice_game2,2,1,practice,na,0,na,na,0,na,0,1385,0.8,10,0.2,20,LP-HP,j,1768,HP,win
230,21,male,British,practice_game2,2,2,practice,na,0,na,na,0,na,0,602,0.6,10,0.4,40,HP-LP,j,3272,LP,win
230,21,male,British,practice_game2,2,3,practice,na,0,na,na,0,na,0,641,0.7,10,0.3,50,HP-LP,f,1275,HP,no-win
230,21,male,British,practice_game2,2,4,practice,na,0,na,na,0,na,0,516,0.8,50,0.4,20,LP-HP,j,1106,HP,win
230,21,male,British,practice_game2,2,5,practice,na,0,na,na,0,na,0,493,0.8,20,0.2,30,HP-LP,f,1395,HP,win
230,21,male,British,exp,3,2,catch,no,1855,mixed,f,3871,win,0,1031,0.7,30,0.3,10,LP-HP,j,1018,HP,no-win
230,21,male,British,exp,3,4,catch,yes,859,mixed,f,1123,win,0,1754,0.8,10,0.7,50,LP-HP,f,3508,LP,no-win
230,21,male,British,exp,3,6,exp,no,679,mixed,f,1188,win,0,418,0.6,30,0.4,50,HP-LP,f,1570,HP,win
230,21,male,British,exp,3,8,exp,yes,604,mixed,f,711,win,0,567,0.6,10,0.4,40,HP-LP,j,2718,LP,win
230,21,male,British,exp,3,10,exp,no,421,mixed,f,892,win,0,469,0.7,30,0.3,40,LP-HP,j,853,HP,win
230,21,male,British,exp,3,12,exp,no,419,mixed,f,1051,win,0,397,0.8,10,0.2,20,HP-LP,f,956,HP,win
230,21,male,British,exp,3,14,exp,no,472,mixed,f,669,win,0,415,0.6,40,0.4,50,LP-HP,j,2188,HP,no-win
230,21,male,British,exp,3,16,exp,no,361,mixed,f,796,win,0,400,0.6,40,0.4,50,HP-LP,f,4796,HP,win
230,21,male,British,exp,3,18,exp,no,369,mixed,f,628,loss,0,431,0.7,30,0.3,40,HP-LP,f,1319,HP,win
230,21,male,British,exp,3,20,exp,no,388,mixed,f,574,win,0,494,0.8,20,0.2,30,LP-HP,j,715,HP,win
230,21,male,British,exp,3,22,catch,no,289,mixed,f,603,win,0,29,0.8,10,0.7,50,HP-LP,j,1042,LP,no-win
230,21,male,British,exp,3,24,catch,no,438,mixed,f,531,win,0,425,0.8,40,0.2,20,HP-LP,f,821,HP,win
230,21,male,British,exp,3,26,exp,no,309,mixed,f,716,win,0,464,0.7,10,0.3,50,HP-LP,f,1281,HP,win
230,21,male,British,exp,3,28,exp,yes,425,mixed,f,580,win,0,548,0.7,10,0.3,30,HP-LP,f,1523,HP,no-win
230,21,male,British,exp,3,30,exp,yes,346,mixed,f,556,loss,0,500,0.8,10,0.2,20,HP-LP,f,897,HP,win
230,21,male,British,exp,3,32,exp,no,320,mixed,f,583,loss,0,431,0.6,40,0.4,50,HP-LP,j,2741,LP,no-win
230,21,male,British,exp,3,34,exp,yes,262,mixed,f,534,loss,1,397,0.6,40,0.4,50,HP-LP,f,1221,HP,no-win
230,21,male,British,exp,3,36,catch,yes,443,mixed,j,956,win,0,540,0.6,10,0.5,50,HP-LP,j,1248,LP,no-win
230,21,male,British,exp,3,38,exp,yes,461,mixed,f,748,win,0,413,0.8,10,0.2,20,LP-HP,j,971,HP,no-win
230,21,male,British,exp,3,40,exp,yes,335,mixed,j,814,win,0,466,0.8,20,0.2,30,HP-LP,f,995,HP,win
230,21,male,British,exp,3,42,exp,yes,512,mixed,f,1193,win,0,493,0.7,30,0.3,40,LP-HP,j,810,HP,win
230,21,male,British,exp,3,44,exp,no,275,mixed,f,978,win,0,509,0.6,30,0.4,50,LP-HP,j,994,HP,no-win
230,21,male,British,exp,3,46,exp,no,388,mixed,j,1144,win,0,566,0.8,20,0.2,30,HP-LP,f,892,HP,win
230,21,male,British,exp,3,48,catch,no,348,mixed,j,723,win,0,341,0.7,10,0.6,50,LP-HP,f,1635,LP,win
230,21,male,British,exp,3,50,exp,yes,404,mixed,j,725,win,0,402,0.8,20,0.2,30,LP-HP,j,940,HP,no-win
230,21,male,British,exp,3,52,exp,yes,392,mixed,j,760,loss,0,617,0.8,20,0.2,30,LP-HP,j,911,HP,win
230,21,male,British,exp,4,2,exp,yes,1961,mixed,j,587,loss,0,911,0.7,20,0.3,30,HP-LP,f,888,HP,no-win
230,21,male,British,exp,4,4,exp,yes,334,mixed,j,461,loss,0,789,0.7,10,0.3,30,LP-HP,j,748,HP,win
230,21,male,British,exp,4,6,exp,yes,777,mixed,f,646,win,0,500,0.6,40,0.4,50,HP-LP,f,958,HP,no-win
230,21,male,British,exp,4,8,exp,no,442,mixed,f,701,loss,0,420,0.7,10,0.3,50,HP-LP,f,707,HP,win
230,21,male,British,exp,4,10,exp,yes,585,mixed,j,574,loss,1,678,0.7,20,0.3,30,LP-HP,j,569,HP,win
230,21,male,British,exp,4,12,exp,yes,738,mixed,j,687,win,0,1591,0.8,10,0.2,20,HP-LP,f,569,HP,win
230,21,male,British,exp,4,14,exp,yes,408,mixed,j,471,loss,0,507,0.7,30,0.3,40,HP-LP,f,603,HP,no-win
230,21,male,British,exp,4,16,catch,no,423,mixed,f,336,loss,0,258,0.8,40,0.2,20,LP-HP,j,491,HP,win
230,21,male,British,exp,4,18,exp,no,351,mixed,j,474,loss,0,413,0.7,10,0.3,50,LP-HP,j,513,HP,win
230,21,male,British,exp,4,20,exp,no,319,mixed,j,561,win,0,442,0.7,20,0.3,30,HP-LP,f,582,HP,no-win
230,21,male,British,exp,4,22,exp,yes,536,mixed,j,485,loss,1,356,0.7,30,0.3,40,LP-HP,j,475,HP,no-win
230,21,male,British,exp,4,24,exp,no,322,mixed,j,496,loss,0,4,0.6,10,0.4,40,LP-HP,f,751,LP,no-win
230,21,male,British,exp,4,26,exp,no,342,mixed,f,486,loss,0,50,0.6,20,0.4,50,HP-LP,f,528,HP,no-win
230,21,male,British,exp,4,28,catch,yes,340,mixed,j,452,win,1,300,0.8,50,0.2,30,LP-HP,j,631,HP,win
230,21,male,British,exp,4,30,exp,yes,293,mixed,j,494,loss,0,446,0.6,40,0.4,50,LP-HP,j,720,HP,win
230,21,male,British,exp,4,32,exp,no,313,mixed,f,243,loss,0,366,0.6,10,0.4,40,HP-LP,j,1207,LP,win
230,21,male,British,exp,4,34,exp,yes,275,mixed,j,481,win,1,275,0.6,10,0.4,40,LP-HP,f,741,LP,win
230,21,male,British,exp,4,36,exp,yes,313,mixed,j,444,loss,0,335,0.7,10,0.3,50,HP-LP,j,1871,LP,win
230,21,male,British,exp,4,38,exp,no,296,mixed,j,445,loss,0,271,0.7,10,0.3,30,HP-LP,j,418,LP,no-win
230,21,male,British,exp,4,40,catch,no,312,mixed,f,557,loss,0,341,0.7,10,0.6,50,HP-LP,j,687,LP,no-win
230,21,male,British,exp,4,42,catch,no,409,mixed,j,466,loss,1,386,0.6,10,0.5,50,HP-LP,j,456,LP,no-win
230,21,male,British,exp,4,44,exp,no,253,mixed,j,495,loss,1,460,0.8,20,0.2,30,LP-HP,j,879,HP,win
230,21,male,British,exp,4,46,catch,no,275,mixed,f,652,loss,0,477,0.8,50,0.2,30,LP-HP,j,379,HP,win
230,21,male,British,exp,4,48,exp,yes,319,mixed,j,448,win,0,418,0.7,10,0.3,50,HP-LP,f,1512,HP,no-win
230,21,male,British,exp,4,50,catch,yes,261,mixed,j,403,win,0,301,0.7,10,0.6,50,HP-LP,j,328,LP,no-win
230,21,male,British,exp,4,52,exp,yes,436,mixed,j,661,win,0,331,0.6,30,0.4,50,LP-HP,j,893,HP,win
230,21,male,British,exp,5,2,exp,yes,1367,mixed,j,907,loss,0,906,0.8,20,0.2,30,HP-LP,f,707,HP,win
230,21,male,British,exp,5,4,catch,yes,305,mixed,f,528,loss,1,297,0.8,40,0.2,20,HP-LP,f,558,HP,win
230,21,male,British,exp,5,6,exp,no,259,mixed,j,878,win,0,358,0.6,10,0.4,40,HP-LP,j,1149,LP,no-win
230,21,male,British,exp,5,8,exp,yes,374,mixed,j,519,win,0,280,0.7,10,0.3,30,LP-HP,j,785,HP,no-win
230,21,male,British,exp,5,10,exp,yes,280,mixed,j,480,win,1,323,0.6,20,0.4,50,LP-HP,j,854,HP,win
230,21,male,British,exp,5,12,exp,yes,330,mixed,j,419,win,0,354,0.7,10,0.3,50,LP-HP,j,781,HP,win
230,21,male,British,exp,5,14,catch,no,335,mixed,j,496,loss,1,436,0.8,10,0.7,50,LP-HP,f,739,LP,no-win
230,21,male,British,exp,5,16,exp,yes,351,mixed,f,362,win,0,300,0.7,20,0.3,30,HP-LP,f,476,HP,win
230,21,male,British,exp,5,18,exp,yes,295,mixed,f,441,loss,0,668,0.6,10,0.4,40,LP-HP,f,1265,LP,no-win
230,21,male,British,exp,5,20,exp,no,322,mixed,j,445,loss,0,335,0.6,30,0.4,50,HP-LP,f,577,HP,no-win
230,21,male,British,exp,5,22,exp,yes,231,mixed,f,290,loss,1,441,0.8,10,0.2,20,LP-HP,j,918,HP,win
230,21,male,British,exp,5,24,exp,no,277,mixed,j,449,loss,1,409,0.7,30,0.3,40,LP-HP,j,707,HP,no-win
230,21,male,British,exp,5,26,exp,yes,259,mixed,j,487,win,1,325,0.7,20,0.3,30,LP-HP,j,786,HP,win
230,21,male,British,exp,5,28,catch,yes,462,mixed,j,428,loss,0,510,0.8,50,0.2,30,HP-LP,f,539,HP,win
230,21,male,British,exp,5,30,exp,yes,242,mixed,f,450,loss,0,302,0.6,10,0.4,40,HP-LP,f,842,HP,win
230,21,male,British,exp,5,32,exp,no,309,mixed,f,447,loss,0,353,0.6,30,0.4,50,LP-HP,f,1354,LP,no-win
230,21,male,British,exp,5,34,exp,yes,319,mixed,f,392,loss,0,327,0.7,10,0.3,30,HP-LP,f,487,HP,win
230,21,male,British,exp,5,36,exp,no,315,mixed,j,202,loss,0,370,0.6,20,0.4,50,LP-HP,j,865,HP,win
230,21,male,British,exp,5,38,exp,yes,401,mixed,f,538,win,1,313,0.6,30,0.4,50,HP-LP,f,833,HP,win
230,21,male,British,exp,5,40,catch,no,285,mixed,f,515,win,1,437,0.6,10,0.5,50,LP-HP,f,553,LP,no-win
230,21,male,British,exp,5,42,catch,yes,216,mixed,f,385,win,1,298,0.7,30,0.3,10,HP-LP,f,231,HP,win
230,21,male,British,exp,5,44,exp,yes,320,mixed,f,250,loss,0,348,0.6,20,0.4,50,LP-HP,f,313,LP,no-win
230,21,male,British,exp,5,46,catch,yes,255,mixed,j,505,loss,0,356,0.6,10,0.5,50,LP-HP,f,621,LP,win
230,21,male,British,exp,5,48,exp,no,275,mixed,f,231,loss,0,393,0.8,20,0.2,30,HP-LP,f,458,HP,win
230,21,male,British,exp,5,50,exp,no,336,mixed,j,296,win,0,294,0.6,20,0.4,50,HP-LP,f,961,HP,win
230,21,male,British,exp,5,52,exp,no,317,mixed,f,291,loss,0,37,0.8,10,0.2,20,LP-HP,j,660,HP,no-win
230,21,male,British,exp,6,2,exp,no,457,mixed,j,543,loss,0,98,0.7,10,0.3,30,LP-HP,j,1462,HP,win
230,21,male,British,exp,6,4,exp,no,278,mixed,f,505,win,1,429,0.8,10,0.2,20,LP-HP,j,541,HP,win
230,21,male,British,exp,6,6,catch,yes,321,mixed,f,908,loss,1,407,0.7,10,0.6,50,LP-HP,f,1131,LP,win
230,21,male,British,exp,6,8,catch,yes,268,mixed,f,1034,loss,1,289,0.7,30,0.3,10,LP-HP,j,351,HP,win
230,21,male,British,exp,6,10,catch,yes,318,mixed,j,451,win,0,442,0.8,40,0.2,20,LP-HP,j,546,HP,win
230,21,male,British,exp,6,12,exp,yes,311,mixed,j,418,win,0,364,0.6,40,0.4,50,LP-HP,j,924,HP,win
230,21,male,British,exp,6,14,exp,no,482,mixed,f,480,loss,0,297,0.7,20,0.3,30,LP-HP,j,243,HP,win
230,21,male,British,exp,6,16,exp,no,329,mixed,j,500,win,0,316,0.6,10,0.4,40,LP-HP,f,1115,LP,no-win
230,21,male,British,exp,6,18,exp,yes,249,mixed,j,449,loss,0,338,0.7,10,0.3,50,LP-HP,j,734,HP,no-win
230,21,male,British,exp,6,20,catch,no,310,mixed,f,372,win,0,236,0.8,50,0.2,30,HP-LP,f,539,HP,win
230,21,male,British,exp,6,22,exp,no,351,mixed,f,530,win,1,372,0.7,10,0.3,30,LP-HP,j,682,HP,win
230,21,male,British,exp,6,24,catch,no,230,mixed,f,466,loss,0,266,0.7,30,0.3,10,HP-LP,f,423,HP,win
230,21,male,British,exp,6,26,exp,yes,263,mixed,f,275,win,0,389,0.6,20,0.4,50,HP-LP,j,1436,LP,win
230,21,male,British,exp,6,28,exp,yes,299,mixed,j,447,win,0,360,0.7,30,0.3,40,HP-LP,f,466,HP,win
230,21,male,British,exp,6,30,catch,yes,366,mixed,f,578,loss,0,392,0.8,10,0.7,50,HP-LP,j,1290,LP,win
230,21,male,British,exp,6,32,exp,no,405,mixed,j,381,win,0,256,0.7,10,0.3,30,HP-LP,f,502,HP,win
230,21,male,British,exp,6,34,exp,no,275,mixed,j,412,loss,0,203,0.8,10,0.2,20,HP-LP,f,469,HP,win
230,21,male,British,exp,6,36,exp,no,343,mixed,j,333,win,0,20,0.7,30,0.3,40,HP-LP,f,541,HP,no-win
230,21,male,British,exp,6,38,exp,no,275,mixed,j,626,loss,0,56,0.6,40,0.4,50,LP-HP,f,570,LP,no-win
230,21,male,British,exp,6,40,exp,no,450,mixed,f,390,loss,0,249,0.7,20,0.3,30,HP-LP,f,443,HP,win
230,21,male,British,exp,6,42,exp,no,225,mixed,f,296,win,0,277,0.7,20,0.3,30,LP-HP,j,491,HP,win
230,21,male,British,exp,6,44,exp,yes,274,mixed,j,505,loss,0,320,0.6,20,0.4,50,HP-LP,j,1015,LP,no-win
230,21,male,British,exp,6,46,exp,yes,406,mixed,j,675,loss,1,238,0.6,30,0.4,50,LP-HP,j,1100,HP,no-win
230,21,male,British,exp,6,48,exp,no,285,mixed,f,447,win,0,233,0.7,10,0.3,50,LP-HP,j,1297,HP,win
230,21,male,British,exp,6,50,exp,yes,302,mixed,j,449,loss,0,536,0.6,30,0.4,50,HP-LP,f,665,HP,no-win
230,21,male,British,exp,6,52,exp,no,289,mixed,f,475,win,0,236,0.6,20,0.4,50,LP-HP,f,921,LP,no-win
