subject_ID,age,gender,nationality,exp_part,block_number,trial_number,trial_type,delay,game1_startRT,game1_color,game1_respKey,game1_respRT,game1_outcome,game2_delay_premature,game2_startRT,game2_HP_prob,game2_HP_amount,game2_LP_prob,game2_LP_amount,game2_pos,game2_respKey,game2_respRT,game2_choice,game2_outcome
90,21,male,South African,practice_game1,1,1,practice,na,3189,mixed,f,5097,loss,0,0,0,0,0,0,na,na,0,na,na
90,21,male,South African,practice_game1,1,2,practice,na,5961,mixed,f,1114,win,0,0,0,0,0,0,na,na,0,na,na
90,21,male,South African,practice_game1,1,3,practice,na,2728,mixed,j,1235,loss,0,0,0,0,0,0,na,na,0,na,na
90,21,male,South African,practice_game1,1,4,practice,na,1540,mixed,j,2141,win,0,0,0,0,0,0,na,na,0,na,na
90,21,male,South African,practice_game2,2,1,practice,na,0,na,na,0,na,0,1088,0.8,20,0.2,30,LP-HP,j,2549,HP,win
90,21,male,South African,practice_game2,2,2,practice,na,0,na,na,0,na,0,2105,0.8,10,0.2,20,HP-LP,f,2574,HP,win
90,21,male,South African,practice_game2,2,3,practice,na,0,na,na,0,na,0,762,0.8,50,0.4,20,HP-LP,f,4254,HP,win
90,21,male,South African,practice_game2,2,4,practice,na,0,na,na,0,na,0,1021,0.6,10,0.4,40,LP-HP,f,2047,LP,no-win
90,21,male,South African,practice_game2,2,5,practice,na,0,na,na,0,na,0,3052,0.7,10,0.3,50,HP-LP,j,4259,LP,no-win
90,21,male,South African,exp,3,2,catch,no,1520,mixed,f,1480,loss,0,1240,0.7,30,0.3,10,HP-LP,f,1868,HP,win
90,21,male,South African,exp,3,4,exp,no,492,mixed,f,1254,win,0,773,0.6,30,0.4,50,HP-LP,j,4961,LP,no-win
90,21,male,South African,exp,3,6,exp,no,409,mixed,f,1333,win,0,560,0.7,30,0.3,40,LP-HP,j,1228,HP,win
90,21,male,South African,exp,3,8,exp,yes,585,mixed,j,974,loss,0,611,0.6,40,0.4,50,HP-LP,f,1371,HP,no-win
90,21,male,South African,exp,3,10,exp,yes,535,mixed,j,857,win,0,482,0.7,10,0.3,30,LP-HP,j,1289,HP,win
90,21,male,South African,exp,3,12,catch,no,515,mixed,f,817,win,0,567,0.7,0,0.4,30,HP-LP,j,3363,LP,no-win
90,21,male,South African,exp,3,14,exp,no,808,mixed,f,811,win,0,499,0.7,10,0.3,50,LP-HP,j,1782,HP,win
90,21,male,South African,exp,3,16,exp,no,690,mixed,j,1062,loss,0,231,0.8,20,0.2,30,LP-HP,j,754,HP,win
90,21,male,South African,exp,3,18,exp,yes,581,mixed,f,710,loss,1,305,0.8,20,0.2,30,HP-LP,f,686,HP,win
90,21,male,South African,exp,3,20,exp,yes,394,mixed,j,725,win,0,905,0.7,30,0.3,40,LP-HP,j,740,HP,win
90,21,male,South African,exp,3,22,exp,no,367,mixed,f,608,win,1,536,0.8,10,0.2,20,HP-LP,f,1204,HP,win
90,21,male,South African,exp,3,24,exp,yes,363,mixed,j,838,win,1,449,0.6,40,0.4,50,HP-LP,f,821,HP,no-win
90,21,male,South African,exp,3,26,catch,no,361,mixed,j,629,win,0,428,0.7,30,0.3,10,LP-HP,j,687,HP,win
90,21,male,South African,exp,3,28,exp,no,249,mixed,f,614,loss,1,405,0.7,20,0.3,30,LP-HP,j,500,HP,no-win
90,21,male,South African,exp,3,30,exp,yes,284,mixed,f,457,loss,1,392,0.7,20,0.3,30,LP-HP,j,601,HP,no-win
90,21,male,South African,exp,3,32,catch,yes,1172,mixed,f,519,win,1,666,0.7,30,0.3,10,HP-LP,f,1126,HP,win
90,21,male,South African,exp,3,34,exp,no,394,mixed,j,613,loss,0,48,0.6,40,0.4,50,HP-LP,f,712,HP,no-win
90,21,male,South African,exp,3,36,catch,yes,418,mixed,j,778,loss,0,359,0.6,0,0.2,40,LP-HP,f,1378,LP,no-win
90,21,male,South African,exp,3,38,exp,yes,749,mixed,f,689,loss,1,348,0.6,30,0.4,50,HP-LP,j,352,LP,no-win
90,21,male,South African,exp,3,40,exp,no,272,mixed,f,391,win,0,376,0.8,20,0.2,30,HP-LP,f,612,HP,no-win
90,21,male,South African,exp,3,42,exp,yes,2120,mixed,j,1060,win,0,335,0.7,20,0.3,30,HP-LP,f,1379,HP,win
90,21,male,South African,exp,3,44,exp,no,616,mixed,f,3019,loss,1,403,0.8,10,0.2,20,LP-HP,j,578,HP,win
90,21,male,South African,exp,3,46,exp,no,288,mixed,f,430,win,1,438,0.7,10,0.3,30,LP-HP,j,473,HP,win
90,21,male,South African,exp,3,48,exp,yes,266,mixed,f,535,win,0,336,0.6,30,0.4,50,HP-LP,j,1880,LP,no-win
90,21,male,South African,exp,3,50,exp,yes,311,mixed,j,344,win,0,298,0.7,10,0.3,50,HP-LP,j,1627,LP,no-win
90,21,male,South African,exp,3,52,catch,no,417,mixed,f,383,win,0,543,0.6,0,0.2,40,LP-HP,f,2796,LP,no-win
90,21,male,South African,exp,4,2,exp,no,1840,mixed,f,583,loss,0,411,0.7,30,0.3,40,LP-HP,j,389,HP,win
90,21,male,South African,exp,4,4,exp,no,372,mixed,f,514,loss,1,335,0.7,20,0.3,30,HP-LP,j,371,LP,no-win
90,21,male,South African,exp,4,6,exp,yes,356,mixed,f,272,win,1,341,0.8,10,0.2,20,HP-LP,j,313,LP,no-win
90,21,male,South African,exp,4,8,exp,yes,391,mixed,f,339,loss,0,585,0.7,10,0.3,30,HP-LP,f,1859,HP,win
90,21,male,South African,exp,4,10,exp,yes,334,mixed,j,302,loss,2,914,0.6,20,0.4,50,LP-HP,f,1342,LP,win
90,21,male,South African,exp,4,12,catch,yes,534,mixed,f,617,win,0,311,0.6,0,0.2,40,HP-LP,j,1845,LP,no-win
90,21,male,South African,exp,4,14,exp,no,547,mixed,f,592,loss,0,1227,0.7,30,0.3,40,HP-LP,f,776,HP,win
90,21,male,South African,exp,4,16,exp,no,347,mixed,j,477,win,0,330,0.7,10,0.3,30,HP-LP,f,1630,HP,win
90,21,male,South African,exp,4,18,exp,no,271,mixed,j,318,loss,1,381,0.6,30,0.4,50,HP-LP,j,977,LP,no-win
90,21,male,South African,exp,4,20,exp,no,507,mixed,f,307,loss,0,360,0.6,20,0.4,50,LP-HP,j,415,HP,win
90,21,male,South African,exp,4,22,exp,no,300,mixed,j,1964,win,0,256,0.6,20,0.4,50,HP-LP,j,1313,LP,no-win
90,21,male,South African,exp,4,24,exp,yes,551,mixed,f,537,loss,1,309,0.6,10,0.4,40,HP-LP,j,281,LP,win
90,21,male,South African,exp,4,26,exp,no,223,mixed,f,400,win,0,469,0.7,30,0.3,40,HP-LP,f,905,HP,win
90,21,male,South African,exp,4,28,exp,no,427,mixed,j,672,win,0,275,0.7,20,0.3,30,LP-HP,j,686,HP,no-win
90,21,male,South African,exp,4,30,exp,no,1950,mixed,f,448,loss,0,117,0.6,20,0.4,50,HP-LP,j,390,LP,no-win
90,21,male,South African,exp,4,32,exp,no,484,mixed,f,308,win,1,303,0.8,20,0.2,30,LP-HP,j,503,HP,win
90,21,male,South African,exp,4,34,exp,yes,219,mixed,f,467,win,0,456,0.7,20,0.3,30,LP-HP,f,1697,LP,no-win
90,21,male,South African,exp,4,36,exp,yes,294,mixed,j,491,win,1,380,0.8,20,0.2,30,LP-HP,j,566,HP,win
90,21,male,South African,exp,4,38,exp,yes,197,mixed,f,403,loss,1,371,0.7,30,0.3,40,LP-HP,j,313,HP,win
90,21,male,South African,exp,4,40,exp,yes,325,mixed,f,373,loss,1,338,0.6,40,0.4,50,LP-HP,j,331,HP,no-win
90,21,male,South African,exp,4,42,exp,yes,335,mixed,f,316,loss,1,289,0.7,10,0.3,50,LP-HP,f,1658,LP,no-win
90,21,male,South African,exp,4,44,catch,yes,11,mixed,j,2360,loss,2,369,0.8,0,0.3,20,HP-LP,j,229,LP,win
90,21,male,South African,exp,4,46,catch,yes,401,mixed,f,634,loss,1,383,0.8,50,0.2,30,HP-LP,j,273,LP,no-win
90,21,male,South African,exp,4,48,catch,no,562,mixed,f,319,loss,0,736,0.6,0,0.2,40,HP-LP,f,431,HP,no-win
90,21,male,South African,exp,4,50,catch,yes,341,mixed,j,383,loss,0,418,0.7,30,0.3,10,LP-HP,j,1401,HP,win
90,21,male,South African,exp,4,52,catch,no,534,mixed,f,360,win,0,687,0.8,40,0.2,20,LP-HP,j,952,HP,win
90,21,male,South African,exp,5,2,exp,yes,918,mixed,f,2381,loss,1,365,0.7,20,0.3,30,HP-LP,f,390,HP,no-win
90,21,male,South African,exp,5,4,catch,no,1584,mixed,f,2603,loss,0,829,0.8,0,0.3,20,LP-HP,j,348,HP,win
90,21,male,South African,exp,5,6,exp,no,1445,mixed,f,2034,loss,0,14,0.7,10,0.3,30,LP-HP,j,477,HP,no-win
90,21,male,South African,exp,5,8,exp,yes,71,mixed,f,465,loss,4,340,0.8,20,0.2,30,LP-HP,j,224,HP,win
90,21,male,South African,exp,5,10,catch,no,201,mixed,f,317,loss,1,116,0.8,50,0.2,30,LP-HP,j,418,HP,win
90,21,male,South African,exp,5,12,exp,yes,208,mixed,f,337,win,0,542,0.7,10,0.3,50,LP-HP,j,550,HP,win
90,21,male,South African,exp,5,14,exp,no,217,mixed,f,602,win,1,496,0.6,10,0.4,40,HP-LP,j,1038,LP,no-win
90,21,male,South African,exp,5,16,exp,yes,468,mixed,f,183,loss,1,242,0.6,10,0.4,40,LP-HP,f,770,LP,win
90,21,male,South African,exp,5,18,exp,yes,380,mixed,j,918,win,1,446,0.7,10,0.3,30,HP-LP,f,216,HP,win
90,21,male,South African,exp,5,20,exp,yes,246,mixed,j,632,win,1,364,0.6,10,0.4,40,HP-LP,j,876,LP,win
90,21,male,South African,exp,5,22,exp,yes,233,mixed,f,428,loss,1,604,0.7,10,0.3,30,LP-HP,j,261,HP,no-win
90,21,male,South African,exp,5,24,exp,no,236,mixed,f,353,win,0,322,0.7,10,0.3,50,HP-LP,f,278,HP,win
90,21,male,South African,exp,5,26,exp,no,237,mixed,f,791,loss,0,566,0.7,10,0.3,50,LP-HP,f,1275,LP,no-win
90,21,male,South African,exp,5,28,catch,yes,505,mixed,j,399,win,1,402,0.8,50,0.2,30,LP-HP,j,761,HP,win
90,21,male,South African,exp,5,30,exp,no,160,mixed,j,666,win,0,519,0.6,10,0.4,40,LP-HP,f,1636,LP,win
90,21,male,South African,exp,5,32,exp,no,208,mixed,j,544,win,1,423,0.6,40,0.4,50,HP-LP,f,1701,HP,win
90,21,male,South African,exp,5,34,catch,yes,199,mixed,j,407,win,0,514,0.7,0,0.4,30,LP-HP,f,1289,LP,no-win
90,21,male,South African,exp,5,36,exp,yes,221,mixed,f,304,win,1,494,0.6,30,0.4,50,LP-HP,j,1481,HP,win
90,21,male,South African,exp,5,38,exp,yes,247,mixed,j,258,win,0,355,0.7,30,0.3,40,HP-LP,f,627,HP,no-win
90,21,male,South African,exp,5,40,exp,no,247,mixed,j,1456,loss,1,345,0.6,10,0.4,40,HP-LP,j,659,LP,no-win
90,21,male,South African,exp,5,42,exp,no,600,mixed,f,1461,win,0,138,0.7,20,0.3,30,HP-LP,f,564,HP,win
90,21,male,South African,exp,5,44,exp,yes,220,mixed,j,373,loss,1,344,0.6,30,0.4,50,LP-HP,j,306,HP,no-win
90,21,male,South African,exp,5,46,exp,yes,1635,mixed,f,249,win,0,474,0.8,20,0.2,30,HP-LP,f,653,HP,win
90,21,male,South African,exp,5,48,catch,no,295,mixed,j,405,loss,0,76,0.8,40,0.2,20,HP-LP,f,318,HP,win
90,21,male,South African,exp,5,50,exp,yes,336,mixed,j,299,win,1,688,0.6,20,0.4,50,HP-LP,f,247,HP,win
90,21,male,South African,exp,5,52,catch,yes,222,mixed,j,428,win,1,335,0.8,0,0.3,20,LP-HP,j,366,HP,no-win
90,21,male,South African,exp,6,2,catch,yes,936,mixed,f,543,loss,1,337,0.7,0,0.4,30,HP-LP,j,675,LP,win
90,21,male,South African,exp,6,4,exp,yes,269,mixed,f,605,win,1,499,0.6,40,0.4,50,LP-HP,j,1142,HP,win
90,21,male,South African,exp,6,6,exp,yes,241,mixed,f,520,loss,0,250,0.6,20,0.4,50,HP-LP,j,268,LP,no-win
90,21,male,South African,exp,6,8,catch,yes,529,mixed,f,372,win,0,503,0.8,40,0.2,20,HP-LP,f,704,HP,win
90,21,male,South African,exp,6,10,exp,no,231,mixed,j,764,win,1,355,0.6,20,0.4,50,LP-HP,f,860,LP,win
90,21,male,South African,exp,6,12,exp,yes,228,mixed,j,476,loss,1,462,0.8,10,0.2,20,LP-HP,j,379,HP,win
90,21,male,South African,exp,6,14,exp,yes,274,mixed,j,258,loss,0,346,0.7,30,0.3,40,HP-LP,f,831,HP,no-win
90,21,male,South African,exp,6,16,exp,no,1253,mixed,j,213,loss,0,381,0.7,10,0.3,30,HP-LP,j,252,LP,no-win
90,21,male,South African,exp,6,18,exp,yes,408,mixed,j,302,win,1,352,0.6,10,0.4,40,LP-HP,f,982,LP,no-win
90,21,male,South African,exp,6,20,exp,yes,262,mixed,j,182,win,1,391,0.8,10,0.2,20,LP-HP,j,440,HP,win
90,21,male,South African,exp,6,22,exp,no,221,mixed,f,510,loss,1,7,0.6,30,0.4,50,LP-HP,j,516,HP,win
90,21,male,South African,exp,6,24,exp,no,239,mixed,j,284,loss,1,217,0.7,10,0.3,50,HP-LP,f,572,HP,win
90,21,male,South African,exp,6,26,exp,no,206,mixed,f,365,loss,1,298,0.6,40,0.4,50,LP-HP,j,1273,HP,win
90,21,male,South African,exp,6,28,exp,no,216,mixed,j,179,win,1,404,0.6,40,0.4,50,LP-HP,j,173,HP,no-win
90,21,male,South African,exp,6,30,catch,no,148,mixed,j,171,loss,1,266,0.7,0,0.4,30,LP-HP,j,216,HP,win
90,21,male,South African,exp,6,32,exp,yes,1318,mixed,j,394,loss,1,437,0.7,10,0.3,50,HP-LP,f,270,HP,win
90,21,male,South African,exp,6,34,exp,no,58,mixed,f,350,loss,1,257,0.6,10,0.4,40,LP-HP,f,722,LP,win
90,21,male,South African,exp,6,36,exp,no,131,mixed,j,250,loss,1,338,0.8,10,0.2,20,HP-LP,f,290,HP,win
90,21,male,South African,exp,6,38,catch,no,213,mixed,f,225,win,1,295,0.8,50,0.2,30,HP-LP,f,3989,HP,win
90,21,male,South African,exp,6,40,exp,no,209,mixed,j,254,win,0,325,0.6,30,0.4,50,LP-HP,f,752,LP,win
90,21,male,South African,exp,6,42,exp,yes,93,mixed,j,293,loss,1,429,0.8,10,0.2,20,HP-LP,f,253,HP,win
90,21,male,South African,exp,6,44,exp,no,203,mixed,j,254,win,1,299,0.8,10,0.2,20,LP-HP,j,922,HP,win
90,21,male,South African,exp,6,46,exp,yes,203,mixed,f,314,win,1,573,0.6,20,0.4,50,LP-HP,j,1466,HP,no-win
90,21,male,South African,exp,6,48,catch,yes,319,mixed,f,287,loss,1,494,0.8,40,0.2,20,LP-HP,j,724,HP,no-win
90,21,male,South African,exp,6,50,exp,no,242,mixed,f,254,loss,1,478,0.8,20,0.2,30,HP-LP,j,268,LP,no-win
90,21,male,South African,exp,6,52,catch,no,39,mixed,f,396,win,1,396,0.8,0,0.3,20,HP-LP,j,240,LP,no-win
