subject_ID,age,gender,nationality,exp_part,block_number,trial_number,trial_type,delay,game1_startRT,game1_color,game1_respKey,game1_respRT,game1_outcome,game2_delay_premature,game2_startRT,game2_HP_prob,game2_HP_amount,game2_LP_prob,game2_LP_amount,game2_pos,game2_respKey,game2_respRT,game2_choice,game2_outcome
115,34,male,English,practice_game1,1,1,practice,na,1421,mixed,j,1806,win,0,0,0,0,0,0,na,na,0,na,na
115,34,male,English,practice_game1,1,2,practice,na,2881,mixed,j,2278,loss,0,0,0,0,0,0,na,na,0,na,na
115,34,male,English,practice_game1,1,3,practice,na,1193,mixed,j,1403,win,0,0,0,0,0,0,na,na,0,na,na
115,34,male,English,practice_game1,1,4,practice,na,907,mixed,f,1625,loss,0,0,0,0,0,0,na,na,0,na,na
115,34,male,English,practice_game2,2,1,practice,na,0,na,na,0,na,0,1361,0.6,10,0.4,40,LP-HP,j,3002,HP,win
115,34,male,English,practice_game2,2,2,practice,na,0,na,na,0,na,0,5672,0.8,50,0.4,20,HP-LP,f,2403,HP,win
115,34,male,English,practice_game2,2,3,practice,na,0,na,na,0,na,0,1498,0.8,10,0.2,20,HP-LP,f,2236,HP,no-win
115,34,male,English,practice_game2,2,4,practice,na,0,na,na,0,na,0,685,0.8,20,0.2,30,LP-HP,j,1499,HP,no-win
115,34,male,English,practice_game2,2,5,practice,na,0,na,na,0,na,0,2546,0.7,10,0.3,50,HP-LP,f,2001,HP,win
115,34,male,English,exp,3,2,exp,yes,1907,mixed,j,1321,win,0,556,0.7,20,0.3,30,HP-LP,f,1991,HP,win
115,34,male,English,exp,3,4,exp,yes,919,mixed,f,1443,loss,0,927,0.8,10,0.2,20,LP-HP,j,1365,HP,no-win
115,34,male,English,exp,3,6,exp,no,1897,mixed,f,1665,loss,1,599,0.6,40,0.4,50,HP-LP,f,2333,HP,win
115,34,male,English,exp,3,8,exp,no,3085,mixed,f,1750,win,0,775,0.7,10,0.3,50,LP-HP,j,2218,HP,win
115,34,male,English,exp,3,10,exp,no,944,mixed,j,2005,win,0,1135,0.6,40,0.4,50,LP-HP,j,1459,HP,win
115,34,male,English,exp,3,12,exp,yes,845,mixed,f,1452,loss,0,845,0.6,30,0.4,50,LP-HP,j,1697,HP,win
115,34,male,English,exp,3,14,exp,yes,692,mixed,j,933,loss,0,761,0.8,20,0.2,30,HP-LP,f,1861,HP,win
115,34,male,English,exp,3,16,exp,no,1560,mixed,f,2068,win,0,3550,0.7,10,0.3,50,HP-LP,f,2666,HP,win
115,34,male,English,exp,3,18,exp,no,1350,mixed,j,7635,loss,0,4815,0.6,10,0.4,40,LP-HP,j,4243,HP,no-win
115,34,male,English,exp,3,20,exp,no,1087,mixed,f,691,win,0,580,0.7,10,0.3,30,LP-HP,j,1219,HP,win
115,34,male,English,exp,3,22,exp,yes,598,mixed,j,1301,win,0,544,0.7,10,0.3,50,LP-HP,j,1840,HP,win
115,34,male,English,exp,3,24,catch,yes,914,mixed,f,723,win,0,1032,0.6,0,0.2,40,LP-HP,f,3501,LP,no-win
115,34,male,English,exp,3,26,exp,no,511,mixed,f,1209,loss,0,1981,0.8,10,0.2,20,HP-LP,f,5543,HP,win
115,34,male,English,exp,3,28,exp,no,3007,mixed,f,1476,loss,0,713,0.6,30,0.4,50,LP-HP,j,2525,HP,win
115,34,male,English,exp,3,30,exp,yes,591,mixed,j,909,loss,0,1280,0.7,10,0.3,30,LP-HP,j,1699,HP,win
115,34,male,English,exp,3,32,catch,yes,643,mixed,f,1106,loss,2,607,0.7,0,0.4,30,LP-HP,f,1750,LP,no-win
115,34,male,English,exp,3,34,exp,yes,1526,mixed,j,929,loss,0,429,0.7,20,0.3,30,HP-LP,f,1539,HP,win
115,34,male,English,exp,3,36,catch,yes,1257,mixed,j,1237,loss,1,463,0.8,0,0.3,20,HP-LP,j,1327,LP,win
115,34,male,English,exp,3,38,exp,no,947,mixed,j,1219,loss,0,629,0.8,20,0.2,30,LP-HP,j,1351,HP,win
115,34,male,English,exp,3,40,catch,no,563,mixed,j,968,loss,0,631,0.7,0,0.4,30,HP-LP,j,1611,LP,no-win
115,34,male,English,exp,3,42,exp,yes,563,mixed,j,420,win,0,339,0.6,10,0.4,40,HP-LP,f,1857,HP,no-win
115,34,male,English,exp,3,44,catch,yes,1682,mixed,j,1138,win,1,667,0.7,0,0.4,30,HP-LP,j,1487,LP,win
115,34,male,English,exp,3,46,exp,yes,847,mixed,j,1092,loss,1,571,0.7,10,0.3,50,LP-HP,j,1773,HP,win
115,34,male,English,exp,3,48,exp,no,1116,mixed,f,1177,win,0,2384,0.6,10,0.4,40,HP-LP,f,1689,HP,no-win
115,34,male,English,exp,3,50,catch,no,507,mixed,j,440,loss,0,654,0.7,30,0.3,10,LP-HP,j,1498,HP,win
115,34,male,English,exp,3,52,exp,no,1584,mixed,j,917,win,0,773,0.6,30,0.4,50,LP-HP,j,1845,HP,win
115,34,male,English,exp,4,2,exp,yes,1907,mixed,j,1549,win,0,1923,0.6,20,0.4,50,HP-LP,f,2649,HP,no-win
115,34,male,English,exp,4,4,exp,yes,4163,mixed,j,1276,loss,0,1855,0.6,40,0.4,50,LP-HP,j,1939,HP,win
115,34,male,English,exp,4,6,exp,yes,1814,mixed,f,1196,win,0,1052,0.6,10,0.4,40,LP-HP,j,5882,HP,win
115,34,male,English,exp,4,8,catch,no,4044,mixed,j,1481,win,0,1098,0.8,40,0.2,20,LP-HP,j,1920,HP,win
115,34,male,English,exp,4,10,exp,yes,807,mixed,f,1054,loss,0,1248,0.8,20,0.2,30,LP-HP,j,1298,HP,win
115,34,male,English,exp,4,12,exp,yes,2042,mixed,j,925,win,0,5430,0.7,10,0.3,30,LP-HP,j,3575,HP,no-win
115,34,male,English,exp,4,14,exp,yes,2614,mixed,f,1477,loss,1,905,0.7,30,0.3,40,LP-HP,j,663,HP,win
115,34,male,English,exp,4,16,exp,no,752,mixed,f,586,loss,0,307,0.6,10,0.4,40,HP-LP,f,1778,HP,win
115,34,male,English,exp,4,18,catch,no,5505,mixed,j,1187,win,0,858,0.8,50,0.2,30,LP-HP,j,1571,HP,win
115,34,male,English,exp,4,20,exp,no,24,mixed,j,1176,win,0,853,0.6,30,0.4,50,HP-LP,f,1601,HP,no-win
115,34,male,English,exp,4,22,exp,yes,1241,mixed,j,1250,loss,0,5612,0.6,20,0.4,50,HP-LP,f,1316,HP,win
115,34,male,English,exp,4,24,catch,yes,3197,mixed,j,1282,loss,0,9049,0.8,40,0.2,20,LP-HP,j,1071,HP,win
115,34,male,English,exp,4,26,exp,yes,606,mixed,j,1068,loss,0,2366,0.6,20,0.4,50,LP-HP,j,1567,HP,win
115,34,male,English,exp,4,28,exp,no,1924,mixed,j,3812,win,0,3083,0.8,20,0.2,30,LP-HP,j,822,HP,win
115,34,male,English,exp,4,30,exp,no,1551,mixed,f,925,loss,0,535,0.8,20,0.2,30,HP-LP,f,644,HP,win
115,34,male,English,exp,4,32,catch,yes,982,mixed,j,564,loss,0,1063,0.7,30,0.3,10,HP-LP,f,874,HP,win
115,34,male,English,exp,4,34,exp,yes,2394,mixed,j,539,loss,0,571,0.7,20,0.3,30,LP-HP,j,916,HP,win
115,34,male,English,exp,4,36,exp,yes,2346,mixed,j,909,win,0,588,0.7,10,0.3,50,HP-LP,f,716,HP,win
115,34,male,English,exp,4,38,catch,yes,3736,mixed,j,1385,win,0,426,0.8,40,0.2,20,HP-LP,f,619,HP,win
115,34,male,English,exp,4,40,exp,no,727,mixed,j,574,loss,0,872,0.6,20,0.4,50,LP-HP,j,1734,HP,no-win
115,34,male,English,exp,4,42,exp,yes,3394,mixed,f,605,loss,2,492,0.7,30,0.3,40,HP-LP,f,1153,HP,win
115,34,male,English,exp,4,44,exp,yes,803,mixed,j,941,win,0,1019,0.8,20,0.2,30,HP-LP,f,912,HP,win
115,34,male,English,exp,4,46,exp,no,777,mixed,j,946,loss,0,612,0.6,40,0.4,50,LP-HP,j,1317,HP,no-win
115,34,male,English,exp,4,48,exp,no,1068,mixed,j,564,win,0,813,0.6,10,0.4,40,LP-HP,j,1175,HP,no-win
115,34,male,English,exp,4,50,exp,no,1054,mixed,f,873,loss,0,495,0.7,20,0.3,30,HP-LP,f,1147,HP,win
115,34,male,English,exp,4,52,catch,yes,1271,mixed,j,559,loss,1,475,0.6,0,0.2,40,HP-LP,j,1366,LP,win
115,34,male,English,exp,5,2,exp,no,1632,mixed,j,907,loss,0,988,0.7,10,0.3,50,HP-LP,j,407,LP,no-win
115,34,male,English,exp,5,4,catch,yes,558,mixed,j,449,win,0,841,0.8,50,0.2,30,HP-LP,f,1438,HP,win
115,34,male,English,exp,5,6,exp,yes,498,mixed,f,730,win,0,2367,0.7,20,0.3,30,LP-HP,j,1413,HP,no-win
115,34,male,English,exp,5,8,exp,no,1453,mixed,j,551,loss,0,812,0.8,10,0.2,20,LP-HP,j,753,HP,win
115,34,male,English,exp,5,10,exp,no,1243,mixed,j,679,loss,0,330,0.7,10,0.3,50,LP-HP,j,1137,HP,win
115,34,male,English,exp,5,12,exp,no,472,mixed,f,921,win,0,614,0.7,30,0.3,40,LP-HP,j,1745,HP,win
115,34,male,English,exp,5,14,exp,yes,620,mixed,j,605,loss,0,732,0.6,30,0.4,50,HP-LP,f,1637,HP,no-win
115,34,male,English,exp,5,16,exp,yes,490,mixed,j,722,loss,0,534,0.6,10,0.4,40,HP-LP,f,2493,HP,win
115,34,male,English,exp,5,18,catch,yes,606,mixed,j,398,loss,0,576,0.8,50,0.2,30,LP-HP,j,1445,HP,win
115,34,male,English,exp,5,20,exp,no,745,mixed,f,535,win,0,583,0.6,40,0.4,50,HP-LP,f,1249,HP,win
115,34,male,English,exp,5,22,exp,no,483,mixed,f,296,win,0,504,0.7,20,0.3,30,LP-HP,j,1111,HP,win
115,34,male,English,exp,5,24,catch,yes,491,mixed,j,475,win,0,8637,0.7,30,0.3,10,LP-HP,j,1115,HP,win
115,34,male,English,exp,5,26,exp,yes,1967,mixed,f,709,win,1,375,0.6,40,0.4,50,LP-HP,j,364,HP,win
115,34,male,English,exp,5,28,exp,no,1949,mixed,f,1350,loss,0,826,0.6,30,0.4,50,HP-LP,f,1241,HP,no-win
115,34,male,English,exp,5,30,exp,yes,676,mixed,f,691,loss,0,521,0.8,10,0.2,20,HP-LP,f,1370,HP,win
115,34,male,English,exp,5,32,catch,no,1144,mixed,f,1509,loss,0,527,0.6,0,0.2,40,LP-HP,f,2010,LP,no-win
115,34,male,English,exp,5,34,catch,no,509,mixed,j,1294,win,0,655,0.7,0,0.4,30,LP-HP,f,1180,LP,no-win
115,34,male,English,exp,5,36,exp,yes,4152,mixed,j,1333,win,0,903,0.7,30,0.3,40,HP-LP,f,1566,HP,win
115,34,male,English,exp,5,38,exp,yes,2016,mixed,j,2279,win,0,1737,0.7,10,0.3,30,HP-LP,f,2300,HP,no-win
115,34,male,English,exp,5,40,catch,no,1146,mixed,f,1562,win,0,483,0.6,0,0.2,40,HP-LP,j,1716,LP,win
115,34,male,English,exp,5,42,exp,yes,499,mixed,j,1267,win,0,2641,0.8,10,0.2,20,HP-LP,f,1470,HP,win
115,34,male,English,exp,5,44,exp,yes,1583,mixed,j,1773,loss,0,638,0.7,10,0.3,50,HP-LP,f,1973,HP,no-win
115,34,male,English,exp,5,46,exp,no,4188,mixed,j,1053,loss,0,3155,0.7,30,0.3,40,LP-HP,j,1928,HP,win
115,34,male,English,exp,5,48,exp,no,5592,mixed,f,1831,win,0,1263,0.8,10,0.2,20,HP-LP,f,1902,HP,win
115,34,male,English,exp,5,50,exp,yes,1288,mixed,j,3035,win,0,2603,0.6,30,0.4,50,HP-LP,f,3342,HP,win
115,34,male,English,exp,5,52,exp,no,4828,mixed,j,1364,win,0,1239,0.7,10,0.3,30,HP-LP,f,1559,HP,no-win
115,34,male,English,exp,6,2,catch,no,1132,mixed,j,1359,loss,0,1284,0.8,50,0.2,30,HP-LP,f,1814,HP,win
115,34,male,English,exp,6,4,exp,yes,2637,mixed,j,1533,win,0,345,0.8,10,0.2,20,LP-HP,j,1238,HP,win
115,34,male,English,exp,6,6,exp,no,470,mixed,j,1085,win,0,637,0.8,10,0.2,20,LP-HP,j,2553,HP,win
115,34,male,English,exp,6,8,catch,yes,775,mixed,f,1213,win,0,385,0.8,0,0.3,20,LP-HP,f,1394,LP,no-win
115,34,male,English,exp,6,10,exp,no,568,mixed,j,1057,win,0,593,0.8,20,0.2,30,HP-LP,f,1469,HP,win
115,34,male,English,exp,6,12,exp,no,1114,mixed,f,1363,win,0,433,0.7,20,0.3,30,HP-LP,f,1539,HP,win
115,34,male,English,exp,6,14,exp,yes,583,mixed,j,1847,loss,0,601,0.6,40,0.4,50,HP-LP,f,898,HP,win
115,34,male,English,exp,6,16,exp,yes,1751,mixed,f,897,loss,0,363,0.6,10,0.4,40,LP-HP,j,1463,HP,win
115,34,male,English,exp,6,18,exp,no,1616,mixed,j,2309,win,0,482,0.6,20,0.4,50,HP-LP,f,1058,HP,no-win
115,34,male,English,exp,6,20,catch,no,611,mixed,j,462,loss,0,559,0.8,0,0.3,20,LP-HP,f,1194,LP,no-win
115,34,male,English,exp,6,22,exp,no,480,mixed,f,788,loss,0,1401,0.7,20,0.3,30,LP-HP,j,324,HP,no-win
115,34,male,English,exp,6,24,catch,no,462,mixed,j,993,win,0,227,0.8,0,0.3,20,HP-LP,j,907,LP,win
115,34,male,English,exp,6,26,exp,no,587,mixed,f,660,win,0,513,0.7,30,0.3,40,HP-LP,f,926,HP,win
115,34,male,English,exp,6,28,exp,no,671,mixed,j,589,loss,0,533,0.7,10,0.3,30,HP-LP,f,1011,HP,win
115,34,male,English,exp,6,30,exp,yes,416,mixed,f,522,win,0,480,0.6,20,0.4,50,LP-HP,j,808,HP,win
115,34,male,English,exp,6,32,exp,yes,574,mixed,f,555,win,0,712,0.7,30,0.3,40,LP-HP,j,2444,HP,win
115,34,male,English,exp,6,34,exp,no,487,mixed,f,521,loss,0,931,0.6,20,0.4,50,HP-LP,f,950,HP,win
115,34,male,English,exp,6,36,exp,yes,554,mixed,j,527,loss,0,779,0.7,10,0.3,30,HP-LP,f,2563,HP,no-win
115,34,male,English,exp,6,38,exp,yes,1129,mixed,j,647,win,0,688,0.6,30,0.4,50,LP-HP,j,1198,HP,no-win
115,34,male,English,exp,6,40,catch,no,788,mixed,f,925,win,0,838,0.7,30,0.3,10,HP-LP,f,740,HP,win
115,34,male,English,exp,6,42,exp,no,745,mixed,j,673,win,0,551,0.6,20,0.4,50,LP-HP,j,2035,HP,win
115,34,male,English,exp,6,44,exp,yes,814,mixed,f,530,win,0,706,0.8,20,0.2,30,LP-HP,j,1034,HP,win
115,34,male,English,exp,6,46,catch,no,499,mixed,f,546,loss,0,531,0.8,40,0.2,20,HP-LP,j,381,LP,no-win
115,34,male,English,exp,6,48,exp,no,1186,mixed,j,761,loss,0,482,0.7,30,0.3,40,HP-LP,f,979,HP,no-win
115,34,male,English,exp,6,50,exp,no,627,mixed,f,641,loss,0,920,0.7,10,0.3,30,LP-HP,j,941,HP,no-win
115,34,male,English,exp,6,52,exp,yes,475,mixed,f,760,win,0,2653,0.6,40,0.4,50,HP-LP,f,1474,HP,no-win
