subject_ID,age,gender,nationality,exp_part,block_number,trial_number,trial_type,delay,game1_startRT,game1_color,game1_respKey,game1_respRT,game1_outcome,game2_delay_premature,game2_startRT,game2_HP_prob,game2_HP_amount,game2_LP_prob,game2_LP_amount,game2_pos,game2_respKey,game2_respRT,game2_choice,game2_outcome
17,47,male,MEXICAN,practice_game1,1,1,practice,na,9973,mixed,f,1211,loss,0,0,0,0,0,0,na,na,0,na,na
17,47,male,MEXICAN,practice_game1,1,2,practice,na,3474,mixed,j,1673,win,0,0,0,0,0,0,na,na,0,na,na
17,47,male,MEXICAN,practice_game1,1,3,practice,na,3733,mixed,j,1771,win,0,0,0,0,0,0,na,na,0,na,na
17,47,male,MEXICAN,practice_game1,1,4,practice,na,4911,mixed,j,582,loss,0,0,0,0,0,0,na,na,0,na,na
17,47,male,MEXICAN,practice_game2,2,1,practice,na,0,na,na,0,na,0,3909,0.8,20,0.2,30,LP-HP,j,3579,HP,no-win
17,47,male,MEXICAN,practice_game2,2,2,practice,na,0,na,na,0,na,0,1447,0.8,10,0.2,20,HP-LP,f,2781,HP,win
17,47,male,MEXICAN,practice_game2,2,3,practice,na,0,na,na,0,na,0,1441,0.8,50,0.4,20,HP-LP,f,1647,HP,win
17,47,male,MEXICAN,practice_game2,2,4,practice,na,0,na,na,0,na,0,1208,0.7,10,0.3,50,LP-HP,f,3808,LP,win
17,47,male,MEXICAN,practice_game2,2,5,practice,na,0,na,na,0,na,0,1235,0.6,10,0.4,40,HP-LP,j,3614,LP,win
17,47,male,MEXICAN,exp,3,2,exp,yes,12328,mixed,f,1487,win,0,1819,0.7,30,0.3,40,LP-HP,j,3006,HP,win
17,47,male,MEXICAN,exp,3,4,exp,yes,3414,mixed,j,1462,loss,0,924,0.6,30,0.4,50,HP-LP,j,2800,LP,win
17,47,male,MEXICAN,exp,3,6,exp,yes,947,mixed,f,1437,loss,0,981,0.8,10,0.2,20,HP-LP,f,1340,HP,no-win
17,47,male,MEXICAN,exp,3,8,catch,yes,1359,mixed,j,1317,win,0,1655,0.6,0,0.2,40,HP-LP,j,5805,LP,win
17,47,male,MEXICAN,exp,3,10,catch,yes,934,mixed,j,1106,win,0,2703,0.7,30,0.3,10,LP-HP,j,1838,HP,win
17,47,male,MEXICAN,exp,3,12,catch,yes,1038,mixed,f,1210,loss,0,5724,0.7,0,0.4,30,LP-HP,f,2064,LP,no-win
17,47,male,MEXICAN,exp,3,14,exp,no,1134,mixed,f,1344,win,0,4232,0.7,10,0.3,50,LP-HP,f,3103,LP,no-win
17,47,male,MEXICAN,exp,3,16,exp,yes,802,mixed,j,1280,win,0,1045,0.7,10,0.3,50,LP-HP,f,1844,LP,win
17,47,male,MEXICAN,exp,3,18,catch,yes,1096,mixed,f,3540,win,0,909,0.8,50,0.2,30,LP-HP,j,1531,HP,no-win
17,47,male,MEXICAN,exp,3,20,exp,no,824,mixed,j,1077,win,0,756,0.7,10,0.3,50,HP-LP,j,1609,LP,win
17,47,male,MEXICAN,exp,3,22,exp,no,963,mixed,f,1231,loss,0,546,0.8,20,0.2,30,HP-LP,f,2247,HP,win
17,47,male,MEXICAN,exp,3,24,exp,no,704,mixed,j,3188,win,0,559,0.8,10,0.2,20,HP-LP,f,2399,HP,no-win
17,47,male,MEXICAN,exp,3,26,catch,yes,836,mixed,j,1107,win,0,873,0.7,0,0.4,30,HP-LP,j,1265,LP,win
17,47,male,MEXICAN,exp,3,28,exp,no,497,mixed,f,1004,loss,0,657,0.6,20,0.4,50,HP-LP,j,1524,LP,no-win
17,47,male,MEXICAN,exp,3,30,exp,no,655,mixed,j,1027,loss,0,467,0.7,30,0.3,40,HP-LP,f,1595,HP,win
17,47,male,MEXICAN,exp,3,32,exp,no,605,mixed,j,1296,win,0,745,0.6,30,0.4,50,HP-LP,j,1975,LP,no-win
17,47,male,MEXICAN,exp,3,34,exp,yes,621,mixed,f,1703,win,0,687,0.6,20,0.4,50,HP-LP,j,1235,LP,no-win
17,47,male,MEXICAN,exp,3,36,catch,yes,456,mixed,f,2548,win,0,1130,0.8,0,0.3,20,HP-LP,j,1062,LP,no-win
17,47,male,MEXICAN,exp,3,38,exp,yes,736,mixed,f,2311,win,0,683,0.6,10,0.4,40,HP-LP,j,1306,LP,win
17,47,male,MEXICAN,exp,3,40,exp,yes,903,mixed,j,1638,loss,0,873,0.6,20,0.4,50,LP-HP,f,1788,LP,win
17,47,male,MEXICAN,exp,3,42,exp,yes,993,mixed,j,1531,win,0,934,0.6,20,0.4,50,LP-HP,f,1624,LP,win
17,47,male,MEXICAN,exp,3,44,exp,yes,976,mixed,f,1312,loss,0,1241,0.6,20,0.4,50,HP-LP,j,1905,LP,no-win
17,47,male,MEXICAN,exp,3,46,exp,no,603,mixed,f,1503,loss,0,502,0.7,10,0.3,30,HP-LP,j,1792,LP,no-win
17,47,male,MEXICAN,exp,3,48,exp,yes,812,mixed,j,967,loss,0,968,0.8,20,0.2,30,LP-HP,j,1385,HP,win
17,47,male,MEXICAN,exp,3,50,exp,yes,825,mixed,f,1443,loss,0,1021,0.7,10,0.3,30,HP-LP,j,1420,LP,win
17,47,male,MEXICAN,exp,3,52,exp,yes,1023,mixed,f,1342,loss,0,625,0.6,30,0.4,50,LP-HP,f,2063,LP,no-win
17,47,male,MEXICAN,exp,4,2,catch,yes,2429,mixed,f,1145,win,0,1378,0.8,40,0.2,20,LP-HP,j,1795,HP,win
17,47,male,MEXICAN,exp,4,4,catch,yes,880,mixed,j,1438,loss,0,885,0.6,0,0.2,40,LP-HP,f,1630,LP,no-win
17,47,male,MEXICAN,exp,4,6,exp,no,854,mixed,j,1025,win,0,739,0.8,10,0.2,20,LP-HP,j,1727,HP,win
17,47,male,MEXICAN,exp,4,8,exp,no,2193,mixed,f,1323,loss,0,669,0.7,10,0.3,30,LP-HP,j,2063,HP,win
17,47,male,MEXICAN,exp,4,10,exp,no,691,mixed,j,1195,win,0,701,0.7,20,0.3,30,LP-HP,j,1857,HP,win
17,47,male,MEXICAN,exp,4,12,exp,yes,748,mixed,f,1266,win,0,738,0.7,10,0.3,50,HP-LP,j,1978,LP,no-win
17,47,male,MEXICAN,exp,4,14,catch,no,795,mixed,j,1336,loss,0,602,0.8,0,0.3,20,HP-LP,j,1113,LP,no-win
17,47,male,MEXICAN,exp,4,16,exp,yes,667,mixed,j,1436,loss,0,775,0.7,10,0.3,50,LP-HP,f,1382,LP,win
17,47,male,MEXICAN,exp,4,18,exp,yes,814,mixed,f,1129,win,0,585,0.8,10,0.2,20,HP-LP,f,2519,HP,win
17,47,male,MEXICAN,exp,4,20,exp,yes,720,mixed,j,1024,loss,0,737,0.7,10,0.3,50,HP-LP,j,1237,LP,win
17,47,male,MEXICAN,exp,4,22,exp,yes,757,mixed,f,1247,loss,0,735,0.7,30,0.3,40,HP-LP,f,1427,HP,no-win
17,47,male,MEXICAN,exp,4,24,exp,yes,882,mixed,j,714,win,0,492,0.6,30,0.4,50,HP-LP,j,1639,LP,no-win
17,47,male,MEXICAN,exp,4,26,exp,no,833,mixed,f,903,win,0,706,0.6,10,0.4,40,HP-LP,j,1678,LP,no-win
17,47,male,MEXICAN,exp,4,28,exp,yes,886,mixed,f,906,win,0,715,0.6,10,0.4,40,LP-HP,f,1443,LP,win
17,47,male,MEXICAN,exp,4,30,exp,no,772,mixed,j,1008,win,0,649,0.7,30,0.3,40,HP-LP,f,1512,HP,win
17,47,male,MEXICAN,exp,4,32,exp,no,702,mixed,j,990,win,0,895,0.6,40,0.4,50,LP-HP,j,1307,HP,win
17,47,male,MEXICAN,exp,4,34,exp,yes,698,mixed,f,928,loss,0,1460,0.6,40,0.4,50,LP-HP,j,1155,HP,win
17,47,male,MEXICAN,exp,4,36,exp,no,738,mixed,f,1064,loss,0,578,0.6,30,0.4,50,HP-LP,f,1683,HP,win
17,47,male,MEXICAN,exp,4,38,catch,no,686,mixed,f,903,win,0,912,0.7,30,0.3,10,HP-LP,f,2033,HP,win
17,47,male,MEXICAN,exp,4,40,exp,no,557,mixed,j,1154,win,0,724,0.7,10,0.3,30,LP-HP,f,1919,LP,no-win
17,47,male,MEXICAN,exp,4,42,catch,no,1088,mixed,f,962,loss,0,572,0.8,40,0.2,20,LP-HP,j,864,HP,no-win
17,47,male,MEXICAN,exp,4,44,exp,no,929,mixed,f,1132,loss,0,561,0.8,10,0.2,20,HP-LP,f,1658,HP,no-win
17,47,male,MEXICAN,exp,4,46,exp,yes,763,mixed,j,1019,win,0,851,0.7,20,0.3,30,LP-HP,j,1129,HP,no-win
17,47,male,MEXICAN,exp,4,48,exp,no,720,mixed,f,823,win,0,749,0.6,40,0.4,50,HP-LP,f,2562,HP,win
17,47,male,MEXICAN,exp,4,50,catch,no,779,mixed,j,830,loss,0,634,0.8,50,0.2,30,LP-HP,j,879,HP,win
17,47,male,MEXICAN,exp,4,52,exp,no,772,mixed,f,744,loss,0,996,0.8,10,0.2,20,LP-HP,j,643,HP,win
17,47,male,MEXICAN,exp,5,2,exp,yes,1665,mixed,f,903,win,0,1099,0.7,20,0.3,30,HP-LP,f,2016,HP,win
17,47,male,MEXICAN,exp,5,4,exp,no,739,mixed,j,973,loss,0,699,0.6,40,0.4,50,LP-HP,j,1016,HP,win
17,47,male,MEXICAN,exp,5,6,exp,no,792,mixed,f,873,loss,0,553,0.7,20,0.3,30,LP-HP,j,1019,HP,win
17,47,male,MEXICAN,exp,5,8,exp,no,809,mixed,f,828,win,0,734,0.7,10,0.3,30,HP-LP,j,1521,LP,no-win
17,47,male,MEXICAN,exp,5,10,exp,no,1326,mixed,j,1255,win,0,763,0.7,30,0.3,40,LP-HP,j,1082,HP,no-win
17,47,male,MEXICAN,exp,5,12,exp,yes,846,mixed,f,753,loss,0,785,0.7,30,0.3,40,LP-HP,j,756,HP,win
17,47,male,MEXICAN,exp,5,14,exp,no,818,mixed,f,1058,loss,0,576,0.6,30,0.4,50,LP-HP,f,1469,LP,no-win
17,47,male,MEXICAN,exp,5,16,exp,no,1440,mixed,f,959,loss,0,664,0.7,30,0.3,40,LP-HP,j,819,HP,win
17,47,male,MEXICAN,exp,5,18,catch,yes,604,mixed,j,890,loss,0,610,0.8,50,0.2,30,HP-LP,f,939,HP,win
17,47,male,MEXICAN,exp,5,20,catch,yes,773,mixed,f,1273,loss,0,533,0.8,0,0.3,20,LP-HP,f,1054,LP,no-win
17,47,male,MEXICAN,exp,5,22,catch,no,1418,mixed,j,1989,win,0,917,0.8,0,0.3,20,LP-HP,f,1059,LP,win
17,47,male,MEXICAN,exp,5,24,exp,no,2024,mixed,f,2866,win,0,873,0.7,20,0.3,30,HP-LP,f,2217,HP,win
17,47,male,MEXICAN,exp,5,26,exp,yes,739,mixed,j,1871,win,0,3358,0.6,40,0.4,50,LP-HP,j,1784,HP,win
17,47,male,MEXICAN,exp,5,28,catch,no,825,mixed,j,1505,win,0,659,0.7,0,0.4,30,LP-HP,f,1357,LP,no-win
17,47,male,MEXICAN,exp,5,30,exp,no,1383,mixed,f,1964,loss,0,602,0.7,20,0.3,30,HP-LP,f,2700,HP,win
17,47,male,MEXICAN,exp,5,32,exp,no,1015,mixed,j,1991,loss,0,638,0.7,10,0.3,50,LP-HP,f,1312,LP,no-win
17,47,male,MEXICAN,exp,5,34,catch,no,876,mixed,f,1954,loss,0,1557,0.7,30,0.3,10,LP-HP,j,906,HP,win
17,47,male,MEXICAN,exp,5,36,exp,yes,828,mixed,f,1124,loss,0,844,0.7,20,0.3,30,HP-LP,f,1177,HP,win
17,47,male,MEXICAN,exp,5,38,exp,yes,844,mixed,j,1139,win,0,928,0.6,30,0.4,50,LP-HP,j,1233,HP,win
17,47,male,MEXICAN,exp,5,40,exp,yes,741,mixed,f,768,win,0,839,0.7,30,0.3,40,HP-LP,f,1060,HP,win
17,47,male,MEXICAN,exp,5,42,exp,no,693,mixed,j,851,win,0,461,0.6,20,0.4,50,LP-HP,f,1181,LP,no-win
17,47,male,MEXICAN,exp,5,44,exp,no,858,mixed,j,750,loss,0,914,0.7,10,0.3,50,HP-LP,j,1285,LP,no-win
17,47,male,MEXICAN,exp,5,46,exp,yes,1263,mixed,j,1186,loss,0,1343,0.7,20,0.3,30,LP-HP,j,1316,HP,win
17,47,male,MEXICAN,exp,5,48,exp,no,1409,mixed,f,920,win,0,874,0.6,30,0.4,50,LP-HP,f,1118,LP,win
17,47,male,MEXICAN,exp,5,50,catch,no,1070,mixed,j,990,loss,0,881,0.6,0,0.2,40,HP-LP,j,954,LP,no-win
17,47,male,MEXICAN,exp,5,52,exp,no,782,mixed,f,829,loss,0,823,0.6,20,0.4,50,LP-HP,f,1402,LP,win
17,47,male,MEXICAN,exp,6,2,exp,yes,1220,mixed,j,1014,win,0,734,0.8,20,0.2,30,HP-LP,f,2084,HP,win
17,47,male,MEXICAN,exp,6,4,exp,yes,766,mixed,f,2532,win,0,723,0.6,40,0.4,50,HP-LP,f,1970,HP,win
17,47,male,MEXICAN,exp,6,6,catch,yes,792,mixed,j,1769,loss,0,713,0.8,40,0.2,20,HP-LP,f,1109,HP,win
17,47,male,MEXICAN,exp,6,8,catch,no,1107,mixed,j,1266,loss,0,909,0.7,0,0.4,30,HP-LP,j,853,LP,win
17,47,male,MEXICAN,exp,6,10,catch,yes,800,mixed,j,1181,loss,0,747,0.7,30,0.3,10,HP-LP,f,1043,HP,win
17,47,male,MEXICAN,exp,6,12,exp,no,782,mixed,j,1617,win,0,819,0.6,20,0.4,50,HP-LP,j,1386,LP,win
17,47,male,MEXICAN,exp,6,14,exp,yes,748,mixed,f,1141,loss,0,828,0.8,10,0.2,20,LP-HP,j,1656,HP,win
17,47,male,MEXICAN,exp,6,16,exp,yes,636,mixed,f,688,win,0,533,0.7,10,0.3,30,LP-HP,f,1592,LP,no-win
17,47,male,MEXICAN,exp,6,18,exp,yes,2539,mixed,j,1367,win,0,656,0.8,20,0.2,30,LP-HP,j,741,HP,win
17,47,male,MEXICAN,exp,6,20,catch,no,767,mixed,f,848,win,0,846,0.8,40,0.2,20,HP-LP,f,1106,HP,win
17,47,male,MEXICAN,exp,6,22,exp,yes,857,mixed,j,884,win,0,1168,0.7,10,0.3,30,HP-LP,j,1265,LP,no-win
17,47,male,MEXICAN,exp,6,24,exp,yes,795,mixed,f,1751,win,0,780,0.8,10,0.2,20,LP-HP,j,1296,HP,no-win
17,47,male,MEXICAN,exp,6,26,exp,no,1051,mixed,j,1142,win,0,619,0.8,20,0.2,30,HP-LP,f,1520,HP,no-win
17,47,male,MEXICAN,exp,6,28,exp,yes,835,mixed,j,765,loss,0,734,0.6,10,0.4,40,LP-HP,f,1055,LP,no-win
17,47,male,MEXICAN,exp,6,30,exp,yes,1120,mixed,j,878,loss,0,1340,0.6,10,0.4,40,HP-LP,j,1216,LP,no-win
17,47,male,MEXICAN,exp,6,32,catch,no,900,mixed,f,1071,win,0,821,0.6,0,0.2,40,LP-HP,f,1115,LP,no-win
17,47,male,MEXICAN,exp,6,34,exp,no,952,mixed,j,897,loss,0,795,0.6,40,0.4,50,HP-LP,f,1139,HP,no-win
17,47,male,MEXICAN,exp,6,36,catch,no,1097,mixed,j,789,win,0,760,0.8,50,0.2,30,HP-LP,f,1845,HP,win
17,47,male,MEXICAN,exp,6,38,exp,no,882,mixed,j,881,loss,0,716,0.6,10,0.4,40,LP-HP,f,1140,LP,win
17,47,male,MEXICAN,exp,6,40,exp,no,655,mixed,j,1131,win,0,661,0.6,10,0.4,40,LP-HP,f,1003,LP,win
17,47,male,MEXICAN,exp,6,42,exp,no,790,mixed,f,1113,loss,0,765,0.6,10,0.4,40,HP-LP,j,1000,LP,win
17,47,male,MEXICAN,exp,6,44,exp,yes,781,mixed,f,963,loss,0,705,0.6,40,0.4,50,HP-LP,j,1155,LP,win
17,47,male,MEXICAN,exp,6,46,exp,no,1106,mixed,f,935,win,0,657,0.8,20,0.2,30,LP-HP,j,1049,HP,win
17,47,male,MEXICAN,exp,6,48,exp,yes,1499,mixed,j,746,loss,0,767,0.7,10,0.3,30,LP-HP,f,1114,LP,no-win
17,47,male,MEXICAN,exp,6,50,exp,no,1234,mixed,f,589,loss,0,695,0.8,20,0.2,30,LP-HP,j,725,HP,win
17,47,male,MEXICAN,exp,6,52,exp,yes,1064,mixed,f,656,loss,0,620,0.8,20,0.2,30,HP-LP,f,1398,HP,win
