subject_ID,age,gender,nationality,exp_part,block_number,trial_number,trial_type,delay,game1_startRT,game1_color,game1_respKey,game1_respRT,game1_outcome,game2_delay_premature,game2_startRT,game2_HP_prob,game2_HP_amount,game2_LP_prob,game2_LP_amount,game2_pos,game2_respKey,game2_respRT,game2_choice,game2_outcome
102,27,male,USA,practice_game1,1,1,practice,na,1061,mixed,j,2984,win,0,0,0,0,0,0,na,na,0,na,na
102,27,male,USA,practice_game1,1,2,practice,na,1150,mixed,j,828,win,0,0,0,0,0,0,na,na,0,na,na
102,27,male,USA,practice_game1,1,3,practice,na,2046,mixed,f,2552,loss,0,0,0,0,0,0,na,na,0,na,na
102,27,male,USA,practice_game1,1,4,practice,na,1171,mixed,f,1542,loss,0,0,0,0,0,0,na,na,0,na,na
102,27,male,USA,practice_game2,2,1,practice,na,0,na,na,0,na,0,951,0.8,50,0.4,20,LP-HP,j,1818,HP,win
102,27,male,USA,practice_game2,2,2,practice,na,0,na,na,0,na,0,816,0.7,10,0.3,50,HP-LP,f,990,HP,win
102,27,male,USA,practice_game2,2,3,practice,na,0,na,na,0,na,0,449,0.6,10,0.4,40,HP-LP,f,946,HP,no-win
102,27,male,USA,practice_game2,2,4,practice,na,0,na,na,0,na,0,681,0.8,10,0.2,20,LP-HP,j,771,HP,win
102,27,male,USA,practice_game2,2,5,practice,na,0,na,na,0,na,0,365,0.8,20,0.2,30,HP-LP,f,941,HP,no-win
102,27,male,USA,exp,3,2,exp,yes,2839,mixed,f,802,loss,1,512,0.8,20,0.2,30,HP-LP,j,448,LP,no-win
102,27,male,USA,exp,3,4,catch,yes,707,mixed,j,1204,win,0,479,0.6,0,0.2,40,LP-HP,j,817,HP,no-win
102,27,male,USA,exp,3,6,catch,no,1677,mixed,j,889,loss,0,465,0.6,0,0.2,40,LP-HP,j,767,HP,win
102,27,male,USA,exp,3,8,exp,yes,871,mixed,f,1102,win,1,517,0.6,40,0.4,50,LP-HP,j,1131,HP,no-win
102,27,male,USA,exp,3,10,catch,no,1368,mixed,j,1338,loss,0,227,0.8,0,0.3,20,HP-LP,f,616,HP,win
102,27,male,USA,exp,3,12,exp,no,598,mixed,f,1297,loss,0,455,0.7,30,0.3,40,LP-HP,j,647,HP,no-win
102,27,male,USA,exp,3,14,exp,no,542,mixed,j,698,win,0,455,0.7,30,0.3,40,LP-HP,j,609,HP,win
102,27,male,USA,exp,3,16,exp,no,2433,mixed,f,664,loss,0,439,0.6,20,0.4,50,LP-HP,j,512,HP,win
102,27,male,USA,exp,3,18,exp,yes,910,mixed,f,622,loss,1,349,0.7,30,0.3,40,HP-LP,f,714,HP,no-win
102,27,male,USA,exp,3,20,exp,no,716,mixed,j,870,win,0,872,0.8,20,0.2,30,HP-LP,f,606,HP,no-win
102,27,male,USA,exp,3,22,exp,yes,1129,mixed,f,873,loss,0,393,0.7,10,0.3,50,LP-HP,j,635,HP,win
102,27,male,USA,exp,3,24,exp,yes,461,mixed,f,781,win,1,423,0.7,10,0.3,50,HP-LP,f,807,HP,win
102,27,male,USA,exp,3,26,exp,yes,732,mixed,j,723,win,0,576,0.7,10,0.3,30,HP-LP,f,975,HP,win
102,27,male,USA,exp,3,28,exp,no,982,mixed,f,1442,loss,0,544,0.8,10,0.2,20,HP-LP,f,640,HP,win
102,27,male,USA,exp,3,30,exp,yes,674,mixed,j,575,loss,3,24,0.8,20,0.2,30,LP-HP,j,665,HP,win
102,27,male,USA,exp,3,32,exp,yes,598,mixed,j,942,win,2,416,0.6,20,0.4,50,LP-HP,j,846,HP,win
102,27,male,USA,exp,3,34,catch,no,978,mixed,j,882,loss,0,924,0.7,0,0.4,30,LP-HP,j,792,HP,win
102,27,male,USA,exp,3,36,exp,no,1058,mixed,j,911,loss,0,830,0.7,10,0.3,30,HP-LP,f,1021,HP,no-win
102,27,male,USA,exp,3,38,exp,yes,1147,mixed,f,824,win,0,481,0.7,10,0.3,50,LP-HP,j,593,HP,no-win
102,27,male,USA,exp,3,40,exp,yes,1273,mixed,j,893,win,0,1185,0.6,30,0.4,50,HP-LP,j,1806,LP,no-win
102,27,male,USA,exp,3,42,catch,no,38331,mixed,j,939,win,0,767,0.7,0,0.4,30,HP-LP,f,482,HP,no-win
102,27,male,USA,exp,3,44,catch,no,516,mixed,j,575,win,0,785,0.7,30,0.3,10,HP-LP,f,484,HP,win
102,27,male,USA,exp,3,46,exp,no,564,mixed,f,601,win,0,119,0.6,10,0.4,40,HP-LP,j,475,LP,no-win
102,27,male,USA,exp,3,48,exp,yes,1076,mixed,f,481,loss,1,352,0.6,10,0.4,40,HP-LP,f,807,HP,win
102,27,male,USA,exp,3,50,exp,yes,518,mixed,j,837,win,0,465,0.7,10,0.3,30,LP-HP,j,655,HP,no-win
102,27,male,USA,exp,3,52,exp,yes,834,mixed,j,588,win,1,550,0.7,30,0.3,40,HP-LP,f,789,HP,no-win
102,27,male,USA,exp,4,2,catch,no,1875,mixed,j,781,win,0,845,0.8,0,0.3,20,LP-HP,j,667,HP,win
102,27,male,USA,exp,4,4,exp,yes,1615,mixed,f,814,win,0,569,0.8,20,0.2,30,HP-LP,f,919,HP,win
102,27,male,USA,exp,4,6,exp,no,2090,mixed,j,715,win,0,2768,0.6,30,0.4,50,HP-LP,f,490,HP,win
102,27,male,USA,exp,4,8,exp,yes,1161,mixed,f,759,win,0,539,0.8,20,0.2,30,LP-HP,j,957,HP,win
102,27,male,USA,exp,4,10,exp,yes,1218,mixed,f,1008,loss,0,1435,0.6,40,0.4,50,HP-LP,f,882,HP,win
102,27,male,USA,exp,4,12,exp,yes,1231,mixed,j,873,win,1,1171,0.8,10,0.2,20,LP-HP,j,574,HP,win
102,27,male,USA,exp,4,14,exp,yes,612,mixed,j,1626,loss,0,567,0.7,20,0.3,30,HP-LP,f,813,HP,win
102,27,male,USA,exp,4,16,exp,no,973,mixed,f,636,win,0,179,0.7,10,0.3,30,LP-HP,j,929,HP,win
102,27,male,USA,exp,4,18,exp,no,761,mixed,j,865,loss,0,1588,0.8,20,0.2,30,LP-HP,j,633,HP,win
102,27,male,USA,exp,4,20,catch,yes,670,mixed,j,699,loss,0,1017,0.8,50,0.2,30,LP-HP,j,613,HP,win
102,27,male,USA,exp,4,22,exp,no,1009,mixed,f,1027,win,0,947,0.8,10,0.2,20,LP-HP,j,588,HP,win
102,27,male,USA,exp,4,24,catch,no,3491,mixed,j,787,win,0,808,0.8,50,0.2,30,LP-HP,j,579,HP,win
102,27,male,USA,exp,4,26,exp,no,1005,mixed,j,736,loss,0,1281,0.7,10,0.3,50,LP-HP,j,715,HP,win
102,27,male,USA,exp,4,28,exp,yes,939,mixed,f,1388,loss,0,577,0.8,10,0.2,20,LP-HP,j,633,HP,win
102,27,male,USA,exp,4,30,catch,yes,123996,mixed,j,810,loss,1,476,0.7,0,0.4,30,HP-LP,f,683,HP,no-win
102,27,male,USA,exp,4,32,exp,yes,492,mixed,j,763,loss,3,272,0.7,10,0.3,30,HP-LP,f,629,HP,no-win
102,27,male,USA,exp,4,34,exp,no,2326,mixed,f,728,loss,0,1949,0.6,40,0.4,50,LP-HP,j,294,HP,win
102,27,male,USA,exp,4,36,exp,yes,605,mixed,j,712,win,2,704,0.7,20,0.3,30,LP-HP,j,762,HP,no-win
102,27,male,USA,exp,4,38,exp,yes,995,mixed,j,919,loss,1,418,0.6,20,0.4,50,HP-LP,f,537,HP,win
102,27,male,USA,exp,4,40,exp,no,623,mixed,f,656,loss,0,582,0.6,10,0.4,40,LP-HP,j,1368,HP,no-win
102,27,male,USA,exp,4,42,catch,yes,423,mixed,f,637,loss,0,465,0.7,30,0.3,10,HP-LP,f,774,HP,win
102,27,male,USA,exp,4,44,exp,no,969,mixed,j,746,loss,0,474,0.8,10,0.2,20,LP-HP,j,275,HP,win
102,27,male,USA,exp,4,46,exp,no,1182,mixed,f,1686,win,0,669,0.7,10,0.3,50,HP-LP,f,648,HP,win
102,27,male,USA,exp,4,48,exp,yes,900,mixed,f,260,win,5,432,0.7,30,0.3,40,LP-HP,j,290,HP,win
102,27,male,USA,exp,4,50,catch,yes,539,mixed,j,727,loss,1,472,0.8,40,0.2,20,LP-HP,j,732,HP,win
102,27,male,USA,exp,4,52,exp,no,1015,mixed,j,1254,win,0,1118,0.6,20,0.4,50,HP-LP,f,689,HP,no-win
102,27,male,USA,exp,5,2,exp,no,894,mixed,j,670,loss,0,1066,0.6,30,0.4,50,HP-LP,f,6008,HP,win
102,27,male,USA,exp,5,4,exp,no,849,mixed,j,729,win,0,403,0.6,10,0.4,40,LP-HP,j,1286,HP,no-win
102,27,male,USA,exp,5,6,catch,no,871,mixed,j,642,loss,0,515,0.8,40,0.2,20,HP-LP,f,462,HP,win
102,27,male,USA,exp,5,8,exp,no,893,mixed,f,581,win,0,625,0.7,10,0.3,30,HP-LP,f,571,HP,win
102,27,male,USA,exp,5,10,catch,no,569,mixed,j,569,win,0,797,0.8,40,0.2,20,LP-HP,j,1309,HP,no-win
102,27,male,USA,exp,5,12,catch,yes,472,mixed,j,877,loss,2,590,0.8,0,0.3,20,LP-HP,j,1463,HP,win
102,27,male,USA,exp,5,14,exp,no,1854,mixed,f,762,win,0,522,0.6,30,0.4,50,LP-HP,j,1006,HP,win
102,27,male,USA,exp,5,16,exp,no,601,mixed,f,604,loss,0,576,0.7,20,0.3,30,HP-LP,j,455,LP,no-win
102,27,male,USA,exp,5,18,exp,no,1497,mixed,f,614,loss,0,499,0.7,10,0.3,30,LP-HP,j,441,HP,win
102,27,male,USA,exp,5,20,exp,yes,614,mixed,j,729,loss,0,432,0.7,30,0.3,40,LP-HP,j,672,HP,win
102,27,male,USA,exp,5,22,exp,no,2882,mixed,f,739,win,0,800,0.8,10,0.2,20,HP-LP,f,624,HP,win
102,27,male,USA,exp,5,24,exp,no,592,mixed,j,480,loss,0,880,0.8,20,0.2,30,HP-LP,f,556,HP,no-win
102,27,male,USA,exp,5,26,exp,no,1232,mixed,j,991,loss,0,387,0.7,20,0.3,30,LP-HP,j,582,HP,win
102,27,male,USA,exp,5,28,exp,yes,636,mixed,f,776,win,1,457,0.8,10,0.2,20,HP-LP,f,570,HP,win
102,27,male,USA,exp,5,30,exp,yes,517,mixed,j,698,loss,0,688,0.6,10,0.4,40,LP-HP,j,1451,HP,win
102,27,male,USA,exp,5,32,exp,yes,923,mixed,f,591,loss,0,539,0.6,30,0.4,50,HP-LP,f,592,HP,no-win
102,27,male,USA,exp,5,34,exp,yes,858,mixed,j,964,win,0,514,0.6,40,0.4,50,HP-LP,f,521,HP,win
102,27,male,USA,exp,5,36,exp,no,708,mixed,f,638,loss,0,458,0.7,10,0.3,50,HP-LP,j,444,LP,no-win
102,27,male,USA,exp,5,38,exp,yes,535,mixed,f,990,loss,0,1015,0.7,10,0.3,30,LP-HP,j,698,HP,no-win
102,27,male,USA,exp,5,40,catch,yes,708,mixed,j,683,win,1,819,0.8,50,0.2,30,HP-LP,f,553,HP,win
102,27,male,USA,exp,5,42,exp,yes,745,mixed,j,764,loss,3,495,0.7,10,0.3,50,HP-LP,j,1745,LP,win
102,27,male,USA,exp,5,44,catch,yes,870,mixed,f,631,win,0,726,0.7,0,0.4,30,LP-HP,j,648,HP,win
102,27,male,USA,exp,5,46,exp,no,1764,mixed,f,1348,loss,0,3061,0.6,20,0.4,50,HP-LP,f,1839,HP,no-win
102,27,male,USA,exp,5,48,catch,no,1589,mixed,j,1360,win,0,1328,0.6,0,0.2,40,HP-LP,f,2530,HP,no-win
102,27,male,USA,exp,5,50,exp,no,656,mixed,j,1321,win,0,712,0.7,20,0.3,30,LP-HP,j,547,HP,win
102,27,male,USA,exp,5,52,exp,no,505,mixed,j,662,win,0,417,0.8,20,0.2,30,LP-HP,j,707,HP,win
102,27,male,USA,exp,6,2,catch,yes,2098,mixed,f,1071,win,0,829,0.8,40,0.2,20,HP-LP,f,2400,HP,win
102,27,male,USA,exp,6,4,exp,no,531,mixed,f,1029,win,0,744,0.7,20,0.3,30,HP-LP,f,1067,HP,no-win
102,27,male,USA,exp,6,6,exp,no,602,mixed,j,747,loss,0,667,0.6,40,0.4,50,HP-LP,f,754,HP,no-win
102,27,male,USA,exp,6,8,exp,no,603,mixed,j,684,win,0,451,0.6,40,0.4,50,LP-HP,j,1105,HP,win
102,27,male,USA,exp,6,10,catch,no,990,mixed,f,741,loss,0,1104,0.8,50,0.2,30,HP-LP,f,688,HP,no-win
102,27,male,USA,exp,6,12,exp,yes,9904,mixed,j,723,win,1,543,0.6,20,0.4,50,HP-LP,f,848,HP,win
102,27,male,USA,exp,6,14,catch,yes,697,mixed,j,577,win,1,899,0.8,0,0.3,20,HP-LP,f,593,HP,no-win
102,27,male,USA,exp,6,16,exp,yes,1005,mixed,j,581,win,1,426,0.6,10,0.4,40,HP-LP,f,749,HP,no-win
102,27,male,USA,exp,6,18,exp,yes,3153,mixed,j,696,loss,0,544,0.6,20,0.4,50,LP-HP,j,772,HP,win
102,27,male,USA,exp,6,20,exp,yes,620,mixed,f,918,loss,1,3674,0.6,30,0.4,50,LP-HP,j,1929,HP,win
102,27,male,USA,exp,6,22,exp,yes,724,mixed,f,685,loss,0,682,0.8,10,0.2,20,HP-LP,j,366,LP,no-win
102,27,male,USA,exp,6,24,exp,no,659,mixed,j,734,win,0,326,0.6,20,0.4,50,LP-HP,j,550,HP,no-win
102,27,male,USA,exp,6,26,exp,no,554,mixed,j,631,loss,1,443,0.6,30,0.4,50,LP-HP,j,965,HP,win
102,27,male,USA,exp,6,28,exp,yes,635,mixed,f,463,loss,2,344,0.7,20,0.3,30,LP-HP,j,670,HP,win
102,27,male,USA,exp,6,30,exp,yes,497,mixed,f,778,win,0,582,0.6,10,0.4,40,LP-HP,j,891,HP,win
102,27,male,USA,exp,6,32,exp,no,677,mixed,j,603,loss,0,498,0.7,30,0.3,40,HP-LP,f,559,HP,win
102,27,male,USA,exp,6,34,exp,no,672,mixed,j,690,win,0,217,0.7,10,0.3,50,LP-HP,j,643,HP,win
102,27,male,USA,exp,6,36,exp,yes,452,mixed,f,770,win,0,652,0.6,30,0.4,50,LP-HP,j,631,HP,no-win
102,27,male,USA,exp,6,38,catch,no,543,mixed,j,925,loss,0,1787,0.7,30,0.3,10,LP-HP,j,566,HP,no-win
102,27,male,USA,exp,6,40,exp,no,719,mixed,f,857,win,0,2235,0.7,30,0.3,40,HP-LP,f,598,HP,win
102,27,male,USA,exp,6,42,exp,no,654,mixed,j,669,win,0,310,0.6,40,0.4,50,HP-LP,f,861,HP,win
102,27,male,USA,exp,6,44,exp,yes,642,mixed,f,611,win,0,579,0.7,20,0.3,30,HP-LP,f,629,HP,win
102,27,male,USA,exp,6,46,catch,yes,545,mixed,j,639,win,1,439,0.7,30,0.3,10,LP-HP,j,551,HP,win
102,27,male,USA,exp,6,48,exp,no,986,mixed,j,822,loss,1,399,0.6,10,0.4,40,HP-LP,f,637,HP,no-win
102,27,male,USA,exp,6,50,exp,yes,147,mixed,j,724,loss,3,833,0.6,40,0.4,50,LP-HP,j,681,HP,no-win
102,27,male,USA,exp,6,52,catch,yes,1229,mixed,f,898,loss,2,387,0.6,0,0.2,40,HP-LP,f,696,HP,win
