subject_ID,age,gender,nationality,exp_part,block_number,trial_number,trial_type,delay,game1_startRT,game1_color,game1_respKey,game1_respRT,game1_outcome,game2_delay_premature,game2_startRT,game2_HP_prob,game2_HP_amount,game2_LP_prob,game2_LP_amount,game2_pos,game2_respKey,game2_respRT,game2_choice,game2_outcome
127,30,male,British,practice_game1,1,1,practice,na,1503,mixed,j,3452,loss,0,0,0,0,0,0,na,na,0,na,na
127,30,male,British,practice_game1,1,2,practice,na,1107,mixed,j,2609,loss,0,0,0,0,0,0,na,na,0,na,na
127,30,male,British,practice_game1,1,3,practice,na,939,mixed,f,866,win,0,0,0,0,0,0,na,na,0,na,na
127,30,male,British,practice_game1,1,4,practice,na,626,mixed,f,1349,win,0,0,0,0,0,0,na,na,0,na,na
127,30,male,British,practice_game2,2,1,practice,na,0,na,na,0,na,0,2391,0.8,50,0.4,20,LP-HP,j,3193,HP,no-win
127,30,male,British,practice_game2,2,2,practice,na,0,na,na,0,na,0,1250,0.8,10,0.2,20,HP-LP,f,999,HP,win
127,30,male,British,practice_game2,2,3,practice,na,0,na,na,0,na,0,795,0.7,10,0.3,50,HP-LP,f,3610,HP,win
127,30,male,British,practice_game2,2,4,practice,na,0,na,na,0,na,0,541,0.6,10,0.4,40,LP-HP,f,1698,LP,no-win
127,30,male,British,practice_game2,2,5,practice,na,0,na,na,0,na,0,708,0.8,20,0.2,30,HP-LP,f,2058,HP,win
127,30,male,British,exp,3,2,exp,yes,1797,mixed,j,1720,win,0,934,0.8,20,0.2,30,LP-HP,j,1292,HP,win
127,30,male,British,exp,3,4,exp,no,2061,mixed,f,1012,loss,0,718,0.8,10,0.2,20,HP-LP,f,1462,HP,win
127,30,male,British,exp,3,6,exp,no,701,mixed,f,1416,win,0,568,0.7,30,0.3,40,LP-HP,j,1169,HP,no-win
127,30,male,British,exp,3,8,exp,no,593,mixed,f,1203,win,0,521,0.7,10,0.3,50,LP-HP,f,1630,LP,no-win
127,30,male,British,exp,3,10,catch,no,456,mixed,j,674,loss,0,374,0.6,0,0.2,40,LP-HP,f,2566,LP,win
127,30,male,British,exp,3,12,exp,no,500,mixed,j,1191,loss,0,341,0.7,10,0.3,30,LP-HP,j,2531,HP,no-win
127,30,male,British,exp,3,14,exp,yes,320,mixed,j,797,win,1,471,0.7,10,0.3,30,LP-HP,j,1282,HP,win
127,30,male,British,exp,3,16,catch,yes,297,mixed,f,865,win,1,696,0.8,0,0.3,20,LP-HP,f,1169,LP,no-win
127,30,male,British,exp,3,18,exp,yes,378,mixed,f,877,win,1,470,0.7,20,0.3,30,HP-LP,f,1045,HP,no-win
127,30,male,British,exp,3,20,exp,no,319,mixed,j,832,loss,0,328,0.7,20,0.3,30,HP-LP,f,742,HP,win
127,30,male,British,exp,3,22,catch,no,454,mixed,j,1383,loss,0,317,0.8,40,0.2,20,HP-LP,f,933,HP,no-win
127,30,male,British,exp,3,24,catch,no,288,mixed,j,674,loss,1,338,0.7,30,0.3,10,HP-LP,f,663,HP,no-win
127,30,male,British,exp,3,26,exp,yes,330,mixed,j,663,win,1,924,0.6,20,0.4,50,LP-HP,f,1416,LP,no-win
127,30,male,British,exp,3,28,exp,yes,319,mixed,j,730,win,0,366,0.7,20,0.3,30,LP-HP,j,955,HP,win
127,30,male,British,exp,3,30,exp,yes,310,mixed,f,865,win,1,454,0.7,10,0.3,50,LP-HP,f,1338,LP,win
127,30,male,British,exp,3,32,exp,yes,420,mixed,f,1102,loss,0,1151,0.8,20,0.2,30,LP-HP,j,921,HP,win
127,30,male,British,exp,3,34,exp,no,334,mixed,j,753,loss,0,325,0.7,30,0.3,40,HP-LP,f,1034,HP,no-win
127,30,male,British,exp,3,36,catch,yes,302,mixed,j,652,win,0,318,0.8,40,0.2,20,HP-LP,f,787,HP,win
127,30,male,British,exp,3,38,exp,no,369,mixed,j,617,win,0,360,0.6,10,0.4,40,LP-HP,f,1540,LP,win
127,30,male,British,exp,3,40,exp,no,299,mixed,f,516,win,1,376,0.8,20,0.2,30,LP-HP,j,595,HP,win
127,30,male,British,exp,3,42,exp,yes,330,mixed,f,460,loss,0,387,0.8,20,0.2,30,HP-LP,f,787,HP,no-win
127,30,male,British,exp,3,44,catch,no,320,mixed,j,1000,loss,1,349,0.7,0,0.4,30,LP-HP,f,1068,LP,win
127,30,male,British,exp,3,46,exp,yes,388,mixed,j,752,loss,1,494,0.7,10,0.3,50,LP-HP,j,2935,HP,no-win
127,30,male,British,exp,3,48,exp,no,333,mixed,j,730,loss,0,284,0.6,30,0.4,50,HP-LP,f,652,HP,no-win
127,30,male,British,exp,3,50,exp,yes,299,mixed,j,539,win,1,948,0.6,20,0.4,50,HP-LP,f,821,HP,win
127,30,male,British,exp,3,52,exp,yes,262,mixed,f,1046,loss,0,465,0.7,30,0.3,40,HP-LP,f,978,HP,no-win
127,30,male,British,exp,4,2,exp,no,1133,mixed,j,967,loss,0,542,0.6,40,0.4,50,LP-HP,j,1022,HP,no-win
127,30,male,British,exp,4,4,exp,yes,523,mixed,j,696,loss,0,454,0.7,20,0.3,30,HP-LP,f,561,HP,no-win
127,30,male,British,exp,4,6,exp,yes,368,mixed,j,348,win,1,386,0.6,40,0.4,50,LP-HP,f,1293,LP,no-win
127,30,male,British,exp,4,8,catch,yes,323,mixed,f,494,loss,0,326,0.7,0,0.4,30,HP-LP,j,1203,LP,no-win
127,30,male,British,exp,4,10,exp,no,340,mixed,j,696,loss,0,397,0.6,30,0.4,50,LP-HP,f,1023,LP,win
127,30,male,British,exp,4,12,exp,no,436,mixed,f,832,win,0,312,0.7,10,0.3,30,LP-HP,j,1091,HP,win
127,30,male,British,exp,4,14,exp,yes,379,mixed,f,753,win,0,609,0.6,30,0.4,50,LP-HP,f,1270,LP,no-win
127,30,male,British,exp,4,16,exp,no,344,mixed,j,843,win,0,401,0.8,10,0.2,20,HP-LP,f,967,HP,win
127,30,male,British,exp,4,18,exp,no,320,mixed,j,471,win,0,347,0.7,10,0.3,30,HP-LP,f,652,HP,win
127,30,male,British,exp,4,20,exp,no,455,mixed,f,359,loss,0,327,0.6,10,0.4,40,LP-HP,f,1113,LP,no-win
127,30,male,British,exp,4,22,exp,yes,345,mixed,j,1214,loss,0,428,0.7,20,0.3,30,LP-HP,j,955,HP,no-win
127,30,male,British,exp,4,24,exp,yes,400,mixed,f,618,loss,0,453,0.8,10,0.2,20,LP-HP,j,595,HP,win
127,30,male,British,exp,4,26,exp,yes,466,mixed,j,730,loss,0,554,0.6,20,0.4,50,HP-LP,f,607,HP,win
127,30,male,British,exp,4,28,catch,yes,357,mixed,j,314,win,1,410,0.7,30,0.3,10,HP-LP,f,562,HP,win
127,30,male,British,exp,4,30,catch,yes,319,mixed,j,281,loss,0,276,0.8,0,0.3,20,HP-LP,j,890,LP,no-win
127,30,male,British,exp,4,32,exp,no,320,mixed,f,753,win,0,6,0.7,10,0.3,50,HP-LP,f,695,HP,no-win
127,30,male,British,exp,4,34,catch,no,266,mixed,f,708,win,0,437,0.8,50,0.2,30,LP-HP,j,551,HP,win
127,30,male,British,exp,4,36,exp,yes,319,mixed,f,809,loss,0,338,0.6,10,0.4,40,LP-HP,f,899,LP,no-win
127,30,male,British,exp,4,38,catch,yes,357,mixed,j,280,win,0,437,0.8,50,0.2,30,HP-LP,f,617,HP,no-win
127,30,male,British,exp,4,40,exp,no,345,mixed,j,685,loss,0,775,0.8,20,0.2,30,LP-HP,j,651,HP,win
127,30,male,British,exp,4,42,exp,no,313,mixed,f,820,win,0,306,0.6,40,0.4,50,LP-HP,j,1529,HP,no-win
127,30,male,British,exp,4,44,exp,no,302,mixed,j,706,loss,0,618,0.8,10,0.2,20,LP-HP,j,573,HP,win
127,30,male,British,exp,4,46,exp,yes,343,mixed,j,641,win,0,645,0.7,30,0.3,40,LP-HP,j,854,HP,no-win
127,30,male,British,exp,4,48,catch,yes,341,mixed,j,787,win,0,358,0.7,0,0.4,30,LP-HP,f,1214,LP,no-win
127,30,male,British,exp,4,50,exp,yes,354,mixed,f,292,loss,0,508,0.6,40,0.4,50,LP-HP,j,1169,HP,no-win
127,30,male,British,exp,4,52,exp,no,331,mixed,f,314,loss,0,409,0.7,30,0.3,40,LP-HP,j,663,HP,win
127,30,male,British,exp,5,2,exp,no,583,mixed,j,832,loss,0,352,0.6,10,0.4,40,HP-LP,f,584,HP,win
127,30,male,British,exp,5,4,exp,no,355,mixed,j,618,loss,0,339,0.7,20,0.3,30,LP-HP,j,877,HP,win
127,30,male,British,exp,5,6,exp,yes,442,mixed,j,280,loss,0,873,0.6,30,0.4,50,HP-LP,f,572,HP,win
127,30,male,British,exp,5,8,exp,no,444,mixed,f,628,loss,0,296,0.6,20,0.4,50,HP-LP,f,629,HP,win
127,30,male,British,exp,5,10,exp,yes,398,mixed,j,572,win,1,440,0.7,10,0.3,50,HP-LP,f,516,HP,no-win
127,30,male,British,exp,5,12,exp,yes,342,mixed,j,639,win,0,337,0.6,30,0.4,50,HP-LP,f,652,HP,no-win
127,30,male,British,exp,5,14,catch,yes,401,mixed,j,303,loss,0,341,0.8,50,0.2,30,LP-HP,j,303,HP,no-win
127,30,male,British,exp,5,16,exp,no,368,mixed,f,641,win,0,292,0.7,30,0.3,40,HP-LP,f,572,HP,win
127,30,male,British,exp,5,18,exp,yes,346,mixed,j,640,win,1,551,0.8,20,0.2,30,HP-LP,f,606,HP,win
127,30,male,British,exp,5,20,exp,yes,390,mixed,f,426,loss,0,474,0.6,30,0.4,50,LP-HP,j,1122,HP,no-win
127,30,male,British,exp,5,22,exp,no,589,mixed,f,280,win,0,572,0.6,20,0.4,50,HP-LP,f,752,HP,no-win
127,30,male,British,exp,5,24,catch,no,355,mixed,j,303,win,0,347,0.7,0,0.4,30,HP-LP,j,831,LP,no-win
127,30,male,British,exp,5,26,catch,yes,469,mixed,j,291,loss,0,374,0.6,0,0.2,40,HP-LP,f,516,HP,win
127,30,male,British,exp,5,28,exp,no,466,mixed,j,415,loss,0,484,0.7,10,0.3,50,LP-HP,f,1495,LP,no-win
127,30,male,British,exp,5,30,exp,yes,335,mixed,j,449,win,0,353,0.6,10,0.4,40,LP-HP,f,1306,LP,win
127,30,male,British,exp,5,32,catch,yes,333,mixed,f,1405,loss,0,510,0.8,40,0.2,20,LP-HP,j,753,HP,no-win
127,30,male,British,exp,5,34,catch,no,355,mixed,j,742,loss,0,373,0.8,0,0.3,20,LP-HP,f,876,LP,win
127,30,male,British,exp,5,36,exp,no,739,mixed,j,674,loss,0,385,0.7,10,0.3,30,HP-LP,f,528,HP,no-win
127,30,male,British,exp,5,38,exp,no,333,mixed,j,235,win,0,340,0.7,20,0.3,30,HP-LP,f,561,HP,win
127,30,male,British,exp,5,40,exp,yes,344,mixed,f,202,loss,0,350,0.8,10,0.2,20,HP-LP,f,539,HP,no-win
127,30,male,British,exp,5,42,exp,no,378,mixed,j,348,win,0,355,0.6,40,0.4,50,HP-LP,j,1303,LP,win
127,30,male,British,exp,5,44,catch,yes,498,mixed,j,742,loss,0,625,0.7,30,0.3,10,LP-HP,j,741,HP,no-win
127,30,male,British,exp,5,46,exp,yes,342,mixed,f,887,loss,0,511,0.6,40,0.4,50,HP-LP,f,989,HP,no-win
127,30,male,British,exp,5,48,exp,no,342,mixed,j,652,win,0,426,0.8,20,0.2,30,HP-LP,f,483,HP,win
127,30,male,British,exp,5,50,exp,no,313,mixed,j,653,loss,0,201,0.8,20,0.2,30,HP-LP,f,539,HP,win
127,30,male,British,exp,5,52,exp,no,341,mixed,f,539,loss,0,363,0.6,20,0.4,50,LP-HP,f,831,LP,no-win
127,30,male,British,exp,6,2,catch,yes,605,mixed,j,561,win,0,507,0.6,0,0.2,40,LP-HP,j,572,HP,win
127,30,male,British,exp,6,4,exp,yes,334,mixed,j,561,loss,0,441,0.6,10,0.4,40,HP-LP,j,1167,LP,no-win
127,30,male,British,exp,6,6,exp,yes,426,mixed,f,595,loss,0,339,0.6,20,0.4,50,LP-HP,j,2159,HP,win
127,30,male,British,exp,6,8,exp,yes,442,mixed,j,731,loss,0,348,0.7,10,0.3,30,HP-LP,f,1214,HP,win
127,30,male,British,exp,6,10,exp,yes,464,mixed,j,258,loss,0,350,0.7,30,0.3,40,LP-HP,j,730,HP,no-win
127,30,male,British,exp,6,12,exp,yes,624,mixed,j,359,win,0,441,0.7,30,0.3,40,HP-LP,f,663,HP,win
127,30,male,British,exp,6,14,exp,yes,376,mixed,j,607,loss,0,434,0.7,10,0.3,50,HP-LP,f,541,HP,win
127,30,male,British,exp,6,16,exp,no,802,mixed,j,473,win,0,464,0.6,10,0.4,40,HP-LP,f,607,HP,win
127,30,male,British,exp,6,18,exp,yes,319,mixed,j,449,win,0,384,0.6,40,0.4,50,HP-LP,f,955,HP,win
127,30,male,British,exp,6,20,exp,no,499,mixed,j,562,win,0,362,0.8,10,0.2,20,LP-HP,j,876,HP,win
127,30,male,British,exp,6,22,exp,yes,391,mixed,f,280,win,0,339,0.8,10,0.2,20,HP-LP,f,550,HP,win
127,30,male,British,exp,6,24,catch,no,332,mixed,j,494,win,0,327,0.8,0,0.3,20,HP-LP,j,787,LP,no-win
127,30,male,British,exp,6,26,catch,no,376,mixed,f,202,win,0,437,0.8,40,0.2,20,LP-HP,j,572,HP,win
127,30,male,British,exp,6,28,exp,no,312,mixed,f,157,win,0,327,0.7,20,0.3,30,LP-HP,j,720,HP,no-win
127,30,male,British,exp,6,30,exp,yes,331,mixed,j,190,win,0,448,0.8,10,0.2,20,LP-HP,j,573,HP,no-win
127,30,male,British,exp,6,32,catch,no,367,mixed,j,213,loss,0,427,0.8,50,0.2,30,HP-LP,f,585,HP,win
127,30,male,British,exp,6,34,exp,no,310,mixed,j,202,loss,0,330,0.6,40,0.4,50,HP-LP,f,855,HP,win
127,30,male,British,exp,6,36,exp,yes,329,mixed,j,178,win,0,496,0.6,10,0.4,40,HP-LP,j,1214,LP,no-win
127,30,male,British,exp,6,38,catch,no,319,mixed,j,168,win,0,387,0.6,0,0.2,40,HP-LP,j,786,LP,no-win
127,30,male,British,exp,6,40,exp,no,344,mixed,f,212,win,0,431,0.6,30,0.4,50,LP-HP,f,853,LP,no-win
127,30,male,British,exp,6,42,exp,yes,342,mixed,j,449,loss,0,363,0.7,10,0.3,30,LP-HP,j,584,HP,no-win
127,30,male,British,exp,6,44,exp,yes,307,mixed,j,133,win,0,689,0.7,10,0.3,30,HP-LP,f,550,HP,win
127,30,male,British,exp,6,46,catch,no,333,mixed,f,145,win,0,352,0.7,30,0.3,10,LP-HP,j,583,HP,win
127,30,male,British,exp,6,48,exp,no,300,mixed,f,112,win,0,14,0.6,30,0.4,50,HP-LP,f,684,HP,win
127,30,male,British,exp,6,50,exp,no,414,mixed,j,154,loss,0,401,0.7,10,0.3,50,HP-LP,f,528,HP,no-win
127,30,male,British,exp,6,52,exp,no,369,mixed,f,258,win,0,381,0.6,20,0.4,50,LP-HP,j,1191,HP,win
