subject_ID,age,gender,nationality,exp_part,block_number,trial_number,trial_type,delay,game1_startRT,game1_color,game1_respKey,game1_respRT,game1_outcome,game2_delay_premature,game2_startRT,game2_HP_prob,game2_HP_amount,game2_LP_prob,game2_LP_amount,game2_pos,game2_respKey,game2_respRT,game2_choice,game2_outcome
95,30,female,South African,practice_game1,1,1,practice,na,3471,mixed,j,2581,loss,0,0,0,0,0,0,na,na,0,na,na
95,30,female,South African,practice_game1,1,2,practice,na,1987,mixed,j,1096,win,0,0,0,0,0,0,na,na,0,na,na
95,30,female,South African,practice_game1,1,3,practice,na,1370,mixed,f,892,loss,0,0,0,0,0,0,na,na,0,na,na
95,30,female,South African,practice_game1,1,4,practice,na,25382,mixed,f,985,win,0,0,0,0,0,0,na,na,0,na,na
95,30,female,South African,practice_game2,2,1,practice,na,0,na,na,0,na,0,2245,0.8,10,0.2,20,LP-HP,j,3048,HP,win
95,30,female,South African,practice_game2,2,2,practice,na,0,na,na,0,na,0,693,0.8,50,0.4,20,HP-LP,f,2297,HP,win
95,30,female,South African,practice_game2,2,3,practice,na,0,na,na,0,na,0,3450,0.8,20,0.2,30,HP-LP,f,1148,HP,no-win
95,30,female,South African,practice_game2,2,4,practice,na,0,na,na,0,na,0,728,0.6,10,0.4,40,LP-HP,j,1344,HP,win
95,30,female,South African,practice_game2,2,5,practice,na,0,na,na,0,na,0,5291,0.7,10,0.3,50,HP-LP,f,987,HP,win
95,30,female,South African,exp,3,2,exp,yes,3448,mixed,f,2708,win,0,2488,0.6,30,0.4,50,LP-HP,j,986,HP,no-win
95,30,female,South African,exp,3,4,exp,yes,849,mixed,j,1107,win,0,875,0.6,10,0.4,40,HP-LP,f,1393,HP,win
95,30,female,South African,exp,3,6,catch,no,668,mixed,f,1023,win,0,950,0.8,0,0.3,20,HP-LP,f,1118,HP,win
95,30,female,South African,exp,3,8,exp,no,4783,mixed,j,1997,win,0,762,0.6,20,0.4,50,LP-HP,j,2058,HP,no-win
95,30,female,South African,exp,3,10,exp,yes,779,mixed,f,750,loss,0,935,0.8,10,0.2,20,LP-HP,j,1240,HP,win
95,30,female,South African,exp,3,12,exp,no,128,mixed,f,1084,loss,0,3142,0.7,10,0.3,50,HP-LP,f,1520,HP,win
95,30,female,South African,exp,3,14,exp,no,1553,mixed,f,587,win,0,2879,0.7,30,0.3,40,LP-HP,j,839,HP,win
95,30,female,South African,exp,3,16,catch,yes,1605,mixed,j,1540,win,0,1301,0.7,30,0.3,10,LP-HP,j,1113,HP,no-win
95,30,female,South African,exp,3,18,catch,no,1563,mixed,f,858,win,0,5431,0.6,0,0.2,40,LP-HP,j,856,HP,win
95,30,female,South African,exp,3,20,exp,yes,1017,mixed,f,1638,win,0,1323,0.8,10,0.2,20,LP-HP,j,1234,HP,no-win
95,30,female,South African,exp,3,22,catch,yes,2797,mixed,f,986,win,0,713,0.8,0,0.3,20,LP-HP,f,1506,LP,no-win
95,30,female,South African,exp,3,24,exp,no,2580,mixed,j,1268,loss,0,553,0.8,10,0.2,20,HP-LP,f,918,HP,win
95,30,female,South African,exp,3,26,exp,yes,3197,mixed,f,1386,win,0,789,0.7,10,0.3,30,LP-HP,j,1123,HP,win
95,30,female,South African,exp,3,28,exp,yes,8039,mixed,f,1516,loss,0,1988,0.7,10,0.3,50,LP-HP,j,1010,HP,win
95,30,female,South African,exp,3,30,exp,yes,1407,mixed,f,1732,win,0,744,0.8,20,0.2,30,HP-LP,f,1024,HP,win
95,30,female,South African,exp,3,32,exp,yes,2131,mixed,f,989,win,0,1715,0.7,30,0.3,40,LP-HP,j,816,HP,win
95,30,female,South African,exp,3,34,exp,no,2419,mixed,f,715,win,0,635,0.7,10,0.3,50,LP-HP,j,611,HP,win
95,30,female,South African,exp,3,36,exp,yes,762,mixed,j,751,loss,0,628,0.7,10,0.3,30,LP-HP,j,808,HP,no-win
95,30,female,South African,exp,3,38,catch,no,571,mixed,j,1114,loss,0,509,0.8,40,0.2,20,HP-LP,f,734,HP,no-win
95,30,female,South African,exp,3,40,exp,no,178,mixed,j,2146,loss,0,423,0.8,20,0.2,30,LP-HP,j,1411,HP,win
95,30,female,South African,exp,3,42,exp,no,1136,mixed,j,1296,loss,0,3236,0.6,20,0.4,50,HP-LP,f,1236,HP,no-win
95,30,female,South African,exp,3,44,exp,no,2074,mixed,f,1084,win,0,962,0.6,30,0.4,50,HP-LP,f,2086,HP,no-win
95,30,female,South African,exp,3,46,exp,no,6503,mixed,f,1384,loss,0,3797,0.6,30,0.4,50,LP-HP,j,900,HP,win
95,30,female,South African,exp,3,48,exp,no,4719,mixed,f,824,win,0,973,0.7,20,0.3,30,LP-HP,j,820,HP,win
95,30,female,South African,exp,3,50,exp,no,994,mixed,j,1261,win,0,562,0.7,20,0.3,30,HP-LP,f,745,HP,win
95,30,female,South African,exp,3,52,catch,yes,1291,mixed,j,734,loss,0,2141,0.6,0,0.2,40,LP-HP,j,986,HP,win
95,30,female,South African,exp,4,2,exp,no,1681,mixed,f,540,win,0,891,0.8,10,0.2,20,LP-HP,j,730,HP,win
95,30,female,South African,exp,4,4,exp,no,558,mixed,f,883,loss,0,840,0.6,40,0.4,50,LP-HP,j,986,HP,win
95,30,female,South African,exp,4,6,exp,no,1380,mixed,f,908,win,0,1732,0.6,40,0.4,50,HP-LP,f,842,HP,win
95,30,female,South African,exp,4,8,exp,yes,1600,mixed,j,1095,win,1,11207,0.7,20,0.3,30,HP-LP,f,886,HP,win
95,30,female,South African,exp,4,10,exp,no,2247,mixed,j,751,loss,0,2909,0.6,10,0.4,40,LP-HP,j,910,HP,win
95,30,female,South African,exp,4,12,exp,yes,3384,mixed,f,1197,loss,0,1419,0.7,30,0.3,40,LP-HP,j,910,HP,no-win
95,30,female,South African,exp,4,14,exp,no,2588,mixed,j,866,loss,0,1384,0.6,20,0.4,50,LP-HP,j,952,HP,win
95,30,female,South African,exp,4,16,catch,no,483,mixed,j,751,loss,0,529,0.7,0,0.4,30,LP-HP,f,1437,LP,win
95,30,female,South African,exp,4,18,exp,no,502,mixed,f,729,win,0,293,0.8,20,0.2,30,LP-HP,j,658,HP,no-win
95,30,female,South African,exp,4,20,catch,yes,2257,mixed,j,575,loss,1,1374,0.8,50,0.2,30,LP-HP,j,659,HP,win
95,30,female,South African,exp,4,22,exp,no,4013,mixed,f,916,loss,0,1986,0.7,20,0.3,30,HP-LP,f,722,HP,win
95,30,female,South African,exp,4,24,exp,no,2094,mixed,j,906,loss,0,882,0.7,10,0.3,30,HP-LP,f,612,HP,no-win
95,30,female,South African,exp,4,26,exp,yes,2753,mixed,j,606,loss,0,661,0.7,10,0.3,50,HP-LP,f,706,HP,win
95,30,female,South African,exp,4,28,catch,yes,6271,mixed,f,747,win,0,733,0.8,50,0.2,30,HP-LP,f,732,HP,no-win
95,30,female,South African,exp,4,30,exp,yes,3496,mixed,f,707,loss,1,542,0.8,20,0.2,30,LP-HP,j,667,HP,win
95,30,female,South African,exp,4,32,exp,no,2366,mixed,f,775,loss,0,2205,0.8,10,0.2,20,LP-HP,j,770,HP,win
95,30,female,South African,exp,4,34,catch,no,680,mixed,f,622,loss,1,1721,0.6,0,0.2,40,HP-LP,j,1365,LP,no-win
95,30,female,South African,exp,4,36,exp,no,1088,mixed,j,1858,win,0,1452,0.6,30,0.4,50,LP-HP,j,862,HP,win
95,30,female,South African,exp,4,38,exp,no,1562,mixed,f,1010,loss,0,2276,0.8,20,0.2,30,HP-LP,f,831,HP,win
95,30,female,South African,exp,4,40,catch,no,702,mixed,f,890,win,0,8045,0.7,30,0.3,10,HP-LP,f,657,HP,no-win
95,30,female,South African,exp,4,42,exp,yes,661,mixed,f,576,loss,0,633,0.8,10,0.2,20,HP-LP,f,627,HP,win
95,30,female,South African,exp,4,44,exp,no,584,mixed,j,912,loss,0,2836,0.6,30,0.4,50,HP-LP,f,1372,HP,win
95,30,female,South African,exp,4,46,exp,no,4074,mixed,f,790,win,0,2136,0.7,30,0.3,40,HP-LP,f,545,HP,no-win
95,30,female,South African,exp,4,48,catch,no,2152,mixed,f,738,win,0,6067,0.8,40,0.2,20,LP-HP,j,1599,HP,win
95,30,female,South African,exp,4,50,exp,yes,678,mixed,f,1368,loss,0,593,0.7,20,0.3,30,HP-LP,f,775,HP,win
95,30,female,South African,exp,4,52,exp,yes,1170,mixed,j,1012,loss,0,758,0.6,10,0.4,40,HP-LP,f,824,HP,win
95,30,female,South African,exp,5,2,exp,yes,2321,mixed,j,1222,win,0,543,0.7,10,0.3,30,HP-LP,f,763,HP,win
95,30,female,South African,exp,5,4,exp,no,2934,mixed,f,688,win,0,943,0.8,20,0.2,30,HP-LP,f,830,HP,no-win
95,30,female,South African,exp,5,6,exp,no,670,mixed,f,469,loss,0,7408,0.7,10,0.3,30,LP-HP,j,666,HP,win
95,30,female,South African,exp,5,8,exp,yes,2580,mixed,f,564,win,0,636,0.7,10,0.3,50,HP-LP,f,737,HP,no-win
95,30,female,South African,exp,5,10,catch,yes,5087,mixed,j,452,win,0,610,0.8,40,0.2,20,HP-LP,f,801,HP,win
95,30,female,South African,exp,5,12,exp,yes,4817,mixed,j,795,loss,0,566,0.7,30,0.3,40,HP-LP,f,645,HP,no-win
95,30,female,South African,exp,5,14,exp,no,793,mixed,f,577,win,0,5585,0.7,10,0.3,50,HP-LP,f,850,HP,win
95,30,female,South African,exp,5,16,exp,no,680,mixed,j,792,loss,0,574,0.7,20,0.3,30,LP-HP,j,702,HP,win
95,30,female,South African,exp,5,18,exp,yes,2342,mixed,f,563,loss,1,725,0.6,20,0.4,50,HP-LP,f,1346,HP,no-win
95,30,female,South African,exp,5,20,exp,yes,511,mixed,j,623,loss,1,689,0.7,20,0.3,30,LP-HP,j,702,HP,win
95,30,female,South African,exp,5,22,catch,no,492,mixed,f,678,win,0,2883,0.7,0,0.4,30,HP-LP,j,1289,LP,no-win
95,30,female,South African,exp,5,24,catch,yes,598,mixed,f,1578,loss,0,476,0.7,0,0.4,30,HP-LP,j,1040,LP,no-win
95,30,female,South African,exp,5,26,catch,yes,1826,mixed,f,1076,win,0,901,0.6,0,0.2,40,HP-LP,j,1299,LP,no-win
95,30,female,South African,exp,5,28,exp,yes,536,mixed,j,1213,loss,0,583,0.6,40,0.4,50,HP-LP,f,692,HP,win
95,30,female,South African,exp,5,30,catch,yes,903,mixed,f,618,loss,0,429,0.8,0,0.3,20,HP-LP,j,866,LP,no-win
95,30,female,South African,exp,5,32,exp,no,6162,mixed,j,649,loss,0,15,0.7,30,0.3,40,LP-HP,j,931,HP,win
95,30,female,South African,exp,5,34,exp,no,1688,mixed,f,668,win,0,1568,0.8,10,0.2,20,HP-LP,f,932,HP,win
95,30,female,South African,exp,5,36,exp,yes,2177,mixed,j,1147,win,0,381,0.6,40,0.4,50,LP-HP,j,1018,HP,win
95,30,female,South African,exp,5,38,exp,yes,545,mixed,f,571,win,1,525,0.6,10,0.4,40,LP-HP,j,2395,HP,win
95,30,female,South African,exp,5,40,exp,no,782,mixed,f,407,loss,0,3814,0.7,30,0.3,40,HP-LP,f,1626,HP,win
95,30,female,South African,exp,5,42,catch,no,527,mixed,j,440,loss,0,836,0.8,0,0.3,20,LP-HP,f,1005,LP,no-win
95,30,female,South African,exp,5,44,exp,yes,221,mixed,j,626,loss,1,641,0.6,10,0.4,40,LP-HP,j,1073,HP,no-win
95,30,female,South African,exp,5,46,exp,yes,529,mixed,f,566,win,0,564,0.7,30,0.3,40,HP-LP,f,744,HP,win
95,30,female,South African,exp,5,48,exp,yes,1644,mixed,j,519,win,0,369,0.8,10,0.2,20,HP-LP,f,982,HP,win
95,30,female,South African,exp,5,50,exp,no,2588,mixed,f,797,win,0,1760,0.6,20,0.4,50,HP-LP,f,1343,HP,win
95,30,female,South African,exp,5,52,exp,no,2534,mixed,j,665,loss,0,783,0.6,40,0.4,50,HP-LP,f,1028,HP,win
95,30,female,South African,exp,6,2,catch,no,4355,mixed,f,607,loss,0,1127,0.8,50,0.2,30,HP-LP,f,650,HP,win
95,30,female,South African,exp,6,4,catch,no,464,mixed,f,1296,win,0,750,0.8,50,0.2,30,LP-HP,j,798,HP,no-win
95,30,female,South African,exp,6,6,exp,yes,498,mixed,j,601,loss,1,313,0.6,20,0.4,50,LP-HP,j,868,HP,no-win
95,30,female,South African,exp,6,8,exp,yes,2437,mixed,j,528,loss,0,600,0.6,30,0.4,50,LP-HP,j,584,HP,no-win
95,30,female,South African,exp,6,10,catch,no,628,mixed,j,432,loss,0,1214,0.7,30,0.3,10,LP-HP,j,724,HP,win
95,30,female,South African,exp,6,12,exp,no,3020,mixed,f,745,loss,0,1183,0.7,10,0.3,50,LP-HP,j,633,HP,win
95,30,female,South African,exp,6,14,exp,yes,814,mixed,f,865,win,0,1573,0.6,40,0.4,50,HP-LP,f,996,HP,win
95,30,female,South African,exp,6,16,exp,yes,3115,mixed,j,1330,win,0,651,0.7,20,0.3,30,LP-HP,j,756,HP,no-win
95,30,female,South African,exp,6,18,catch,yes,1077,mixed,f,558,loss,0,542,0.8,40,0.2,20,LP-HP,j,432,HP,win
95,30,female,South African,exp,6,20,exp,yes,1943,mixed,f,939,win,0,1371,0.6,20,0.4,50,LP-HP,j,1143,HP,win
95,30,female,South African,exp,6,22,exp,yes,6614,mixed,j,645,win,0,491,0.7,10,0.3,50,LP-HP,j,737,HP,no-win
95,30,female,South African,exp,6,24,catch,yes,1103,mixed,f,580,loss,0,717,0.7,30,0.3,10,HP-LP,f,856,HP,win
95,30,female,South African,exp,6,26,catch,yes,1031,mixed,j,798,win,0,953,0.7,0,0.4,30,LP-HP,f,1249,LP,no-win
95,30,female,South African,exp,6,28,exp,yes,727,mixed,f,532,win,0,20761,0.6,20,0.4,50,HP-LP,f,908,HP,win
95,30,female,South African,exp,6,30,exp,no,3160,mixed,j,716,win,0,2059,0.6,10,0.4,40,HP-LP,f,1164,HP,no-win
95,30,female,South African,exp,6,32,exp,no,8020,mixed,j,608,win,0,751,0.6,10,0.4,40,LP-HP,j,836,HP,win
95,30,female,South African,exp,6,34,exp,no,1498,mixed,f,574,win,0,759,0.7,10,0.3,30,HP-LP,f,650,HP,win
95,30,female,South African,exp,6,36,exp,yes,5427,mixed,f,645,loss,1,516,0.6,30,0.4,50,HP-LP,f,658,HP,no-win
95,30,female,South African,exp,6,38,exp,yes,564,mixed,f,469,loss,0,593,0.6,40,0.4,50,LP-HP,j,1067,HP,win
95,30,female,South African,exp,6,40,exp,yes,6770,mixed,f,1192,loss,0,1780,0.7,10,0.3,30,HP-LP,f,652,HP,no-win
95,30,female,South African,exp,6,42,exp,yes,2258,mixed,f,595,win,0,1210,0.6,30,0.4,50,HP-LP,f,687,HP,win
95,30,female,South African,exp,6,44,exp,yes,380,mixed,f,880,loss,1,1239,0.8,20,0.2,30,HP-LP,f,588,HP,win
95,30,female,South African,exp,6,46,exp,yes,699,mixed,f,457,win,0,923,0.8,20,0.2,30,LP-HP,j,593,HP,win
95,30,female,South African,exp,6,48,exp,no,1262,mixed,f,740,loss,0,2945,0.6,10,0.4,40,HP-LP,f,840,HP,win
95,30,female,South African,exp,6,50,exp,no,819,mixed,f,523,win,0,889,0.7,10,0.3,30,LP-HP,j,825,HP,win
95,30,female,South African,exp,6,52,exp,no,3426,mixed,j,720,win,0,7384,0.6,40,0.4,50,LP-HP,j,1359,HP,win
