subject_ID,age,gender,nationality,exp_part,block_number,trial_number,trial_type,delay,game1_startRT,game1_color,game1_respKey,game1_respRT,game1_outcome,game2_delay_premature,game2_startRT,game2_HP_prob,game2_HP_amount,game2_LP_prob,game2_LP_amount,game2_pos,game2_respKey,game2_respRT,game2_choice,game2_outcome
121,51,female,British,practice_game1,1,1,practice,na,1607,mixed,j,5128,loss,0,0,0,0,0,0,na,na,0,na,na
121,51,female,British,practice_game1,1,2,practice,na,1172,mixed,j,976,win,0,0,0,0,0,0,na,na,0,na,na
121,51,female,British,practice_game1,1,3,practice,na,4348,mixed,f,1182,win,0,0,0,0,0,0,na,na,0,na,na
121,51,female,British,practice_game1,1,4,practice,na,962,mixed,j,683,loss,0,0,0,0,0,0,na,na,0,na,na
121,51,female,British,practice_game2,2,1,practice,na,0,na,na,0,na,0,1681,0.8,20,0.2,30,LP-HP,j,3926,HP,win
121,51,female,British,practice_game2,2,2,practice,na,0,na,na,0,na,0,1190,0.6,10,0.4,40,HP-LP,f,1555,HP,win
121,51,female,British,practice_game2,2,3,practice,na,0,na,na,0,na,0,609,0.8,10,0.2,20,HP-LP,f,1282,HP,win
121,51,female,British,practice_game2,2,4,practice,na,0,na,na,0,na,0,811,0.7,10,0.3,50,LP-HP,j,898,HP,win
121,51,female,British,practice_game2,2,5,practice,na,0,na,na,0,na,0,538,0.8,50,0.4,20,HP-LP,j,951,LP,no-win
121,51,female,British,exp,3,2,exp,yes,1791,mixed,f,1559,win,0,724,0.6,20,0.4,50,LP-HP,j,1623,HP,win
121,51,female,British,exp,3,4,catch,no,842,mixed,f,1454,loss,0,496,0.7,30,0.3,10,LP-HP,j,839,HP,win
121,51,female,British,exp,3,6,exp,yes,717,mixed,f,1111,loss,1,554,0.7,10,0.3,30,LP-HP,j,756,HP,win
121,51,female,British,exp,3,8,catch,yes,973,mixed,j,1402,win,0,581,0.7,0,0.4,30,LP-HP,j,1462,HP,no-win
121,51,female,British,exp,3,10,exp,yes,736,mixed,f,1415,win,0,383,0.8,20,0.2,30,LP-HP,j,820,HP,win
121,51,female,British,exp,3,12,exp,yes,2315,mixed,f,1309,loss,0,520,0.6,30,0.4,50,LP-HP,j,3206,HP,no-win
121,51,female,British,exp,3,14,exp,no,1960,mixed,j,1007,loss,0,993,0.8,20,0.2,30,LP-HP,j,931,HP,win
121,51,female,British,exp,3,16,exp,no,713,mixed,j,801,loss,0,202,0.7,10,0.3,50,HP-LP,f,1066,HP,win
121,51,female,British,exp,3,18,exp,no,418,mixed,f,953,loss,0,139,0.7,20,0.3,30,LP-HP,j,703,HP,win
121,51,female,British,exp,3,20,exp,no,720,mixed,f,870,loss,0,1512,0.6,40,0.4,50,LP-HP,f,1681,LP,win
121,51,female,British,exp,3,22,exp,yes,556,mixed,j,730,win,1,316,0.8,10,0.2,20,LP-HP,j,703,HP,no-win
121,51,female,British,exp,3,24,catch,no,576,mixed,j,642,win,0,81,0.7,30,0.3,10,HP-LP,f,696,HP,win
121,51,female,British,exp,3,26,exp,no,253,mixed,j,721,loss,1,505,0.7,20,0.3,30,HP-LP,j,996,LP,no-win
121,51,female,British,exp,3,28,exp,no,493,mixed,f,681,loss,1,641,0.6,30,0.4,50,LP-HP,j,676,HP,win
121,51,female,British,exp,3,30,exp,yes,375,mixed,j,759,loss,2,379,0.8,10,0.2,20,HP-LP,f,865,HP,win
121,51,female,British,exp,3,32,catch,yes,1386,mixed,f,856,loss,2,356,0.8,40,0.2,20,LP-HP,j,581,HP,no-win
121,51,female,British,exp,3,34,catch,no,567,mixed,f,602,win,0,75,0.7,0,0.4,30,HP-LP,j,1352,LP,no-win
121,51,female,British,exp,3,36,exp,no,294,mixed,f,663,loss,1,620,0.7,30,0.3,40,HP-LP,f,1253,HP,win
121,51,female,British,exp,3,38,exp,no,589,mixed,j,633,win,0,373,0.7,30,0.3,40,HP-LP,f,874,HP,no-win
121,51,female,British,exp,3,40,exp,yes,391,mixed,j,653,loss,1,380,0.7,30,0.3,40,HP-LP,f,754,HP,no-win
121,51,female,British,exp,3,42,exp,no,469,mixed,j,488,loss,1,482,0.6,20,0.4,50,HP-LP,f,350,HP,no-win
121,51,female,British,exp,3,44,exp,no,1240,mixed,j,486,win,0,814,0.7,20,0.3,30,HP-LP,f,1176,HP,no-win
121,51,female,British,exp,3,46,catch,no,382,mixed,j,433,loss,0,383,0.8,50,0.2,30,HP-LP,f,810,HP,win
121,51,female,British,exp,3,48,exp,yes,344,mixed,f,836,win,1,336,0.7,10,0.3,50,LP-HP,f,1874,LP,win
121,51,female,British,exp,3,50,exp,no,1928,mixed,j,540,loss,0,430,0.8,10,0.2,20,HP-LP,f,768,HP,no-win
121,51,female,British,exp,3,52,exp,no,442,mixed,j,504,win,0,568,0.6,40,0.4,50,HP-LP,f,1185,HP,no-win
121,51,female,British,exp,4,2,exp,yes,1591,mixed,j,734,loss,2,715,0.6,40,0.4,50,LP-HP,j,1008,HP,no-win
121,51,female,British,exp,4,4,exp,yes,396,mixed,f,591,loss,1,203,0.6,40,0.4,50,HP-LP,f,963,HP,win
121,51,female,British,exp,4,6,exp,no,835,mixed,f,963,win,0,532,0.7,10,0.3,30,LP-HP,j,625,HP,win
121,51,female,British,exp,4,8,catch,no,290,mixed,f,429,win,0,3,0.6,0,0.2,40,LP-HP,j,779,HP,no-win
121,51,female,British,exp,4,10,exp,yes,413,mixed,j,908,loss,2,483,0.7,10,0.3,50,LP-HP,j,946,HP,win
121,51,female,British,exp,4,12,exp,no,533,mixed,f,975,loss,0,512,0.6,30,0.4,50,HP-LP,f,1081,HP,win
121,51,female,British,exp,4,14,catch,yes,596,mixed,j,743,win,0,968,0.8,40,0.2,20,HP-LP,f,926,HP,win
121,51,female,British,exp,4,16,exp,yes,535,mixed,f,805,win,0,254,0.6,40,0.4,50,LP-HP,f,2138,LP,no-win
121,51,female,British,exp,4,18,catch,yes,412,mixed,f,785,loss,2,370,0.6,0,0.2,40,LP-HP,f,1186,LP,win
121,51,female,British,exp,4,20,exp,yes,1582,mixed,f,896,win,0,465,0.7,30,0.3,40,HP-LP,f,915,HP,win
121,51,female,British,exp,4,22,catch,no,1883,mixed,f,805,loss,0,800,0.7,0,0.4,30,LP-HP,f,1148,LP,win
121,51,female,British,exp,4,24,exp,yes,283,mixed,j,610,win,1,589,0.8,10,0.2,20,HP-LP,f,945,HP,win
121,51,female,British,exp,4,26,exp,no,947,mixed,f,911,win,0,1342,0.8,20,0.2,30,HP-LP,f,834,HP,win
121,51,female,British,exp,4,28,exp,yes,956,mixed,f,881,loss,1,352,0.8,20,0.2,30,HP-LP,f,696,HP,win
121,51,female,British,exp,4,30,exp,yes,2800,mixed,j,1522,win,1,840,0.6,20,0.4,50,HP-LP,f,1198,HP,win
121,51,female,British,exp,4,32,exp,yes,1119,mixed,f,1126,loss,1,574,0.6,20,0.4,50,LP-HP,f,2064,LP,win
121,51,female,British,exp,4,34,catch,yes,563,mixed,j,1514,loss,0,319,0.8,0,0.3,20,HP-LP,j,1119,LP,no-win
121,51,female,British,exp,4,36,exp,yes,414,mixed,f,729,win,0,331,0.6,10,0.4,40,HP-LP,f,2230,HP,win
121,51,female,British,exp,4,38,exp,yes,3017,mixed,j,410,win,0,462,0.7,10,0.3,30,LP-HP,j,1250,HP,win
121,51,female,British,exp,4,40,catch,yes,1093,mixed,f,712,win,0,422,0.8,50,0.2,30,HP-LP,f,784,HP,win
121,51,female,British,exp,4,42,exp,no,918,mixed,f,897,loss,0,815,0.7,10,0.3,30,LP-HP,j,737,HP,win
121,51,female,British,exp,4,44,exp,no,556,mixed,j,523,win,0,113,0.6,20,0.4,50,LP-HP,j,1135,HP,win
121,51,female,British,exp,4,46,exp,no,565,mixed,f,904,loss,0,362,0.6,20,0.4,50,LP-HP,f,1831,LP,no-win
121,51,female,British,exp,4,48,exp,yes,582,mixed,j,955,win,0,78,0.6,30,0.4,50,LP-HP,j,1417,HP,no-win
121,51,female,British,exp,4,50,exp,no,329,mixed,f,443,win,0,385,0.8,20,0.2,30,LP-HP,j,938,HP,no-win
121,51,female,British,exp,4,52,exp,no,108,mixed,f,746,loss,1,430,0.8,20,0.2,30,HP-LP,f,675,HP,win
121,51,female,British,exp,5,2,exp,no,1121,mixed,j,729,win,0,128,0.6,30,0.4,50,HP-LP,f,1286,HP,win
121,51,female,British,exp,5,4,exp,yes,305,mixed,f,900,loss,1,307,0.7,20,0.3,30,LP-HP,j,711,HP,win
121,51,female,British,exp,5,6,catch,no,532,mixed,j,1189,win,0,502,0.8,50,0.2,30,LP-HP,j,1459,HP,win
121,51,female,British,exp,5,8,exp,yes,305,mixed,j,904,win,0,357,0.7,10,0.3,50,HP-LP,f,712,HP,win
121,51,female,British,exp,5,10,exp,no,710,mixed,f,839,loss,0,347,0.6,10,0.4,40,HP-LP,f,1119,HP,no-win
121,51,female,British,exp,5,12,exp,no,472,mixed,j,673,win,0,464,0.7,30,0.3,40,LP-HP,j,824,HP,win
121,51,female,British,exp,5,14,exp,yes,306,mixed,j,1266,loss,1,271,0.8,10,0.2,20,LP-HP,j,927,HP,win
121,51,female,British,exp,5,16,exp,no,424,mixed,j,685,win,0,408,0.7,10,0.3,30,HP-LP,f,1199,HP,win
121,51,female,British,exp,5,18,catch,no,573,mixed,f,682,loss,0,157,0.8,0,0.3,20,LP-HP,j,801,HP,win
121,51,female,British,exp,5,20,exp,no,535,mixed,f,565,win,0,402,0.7,20,0.3,30,LP-HP,j,930,HP,win
121,51,female,British,exp,5,22,exp,yes,258,mixed,f,720,win,1,508,0.6,40,0.4,50,HP-LP,f,2619,HP,win
121,51,female,British,exp,5,24,catch,no,261,mixed,f,1037,win,0,493,0.8,40,0.2,20,LP-HP,j,1035,HP,win
121,51,female,British,exp,5,26,exp,no,246,mixed,f,832,loss,0,412,0.7,30,0.3,40,LP-HP,j,860,HP,win
121,51,female,British,exp,5,28,exp,no,277,mixed,j,654,loss,0,469,0.6,10,0.4,40,LP-HP,f,1595,LP,no-win
121,51,female,British,exp,5,30,catch,yes,353,mixed,j,1416,loss,1,940,0.7,30,0.3,10,HP-LP,f,784,HP,win
121,51,female,British,exp,5,32,catch,no,583,mixed,f,738,loss,0,367,0.6,0,0.2,40,HP-LP,j,1096,LP,win
121,51,female,British,exp,5,34,exp,yes,339,mixed,f,407,loss,2,488,0.6,30,0.4,50,HP-LP,f,965,HP,no-win
121,51,female,British,exp,5,36,exp,yes,357,mixed,j,439,loss,0,344,0.8,20,0.2,30,LP-HP,j,588,HP,win
121,51,female,British,exp,5,38,exp,no,495,mixed,f,687,win,0,540,0.6,40,0.4,50,LP-HP,f,2769,LP,no-win
121,51,female,British,exp,5,40,exp,yes,364,mixed,j,452,loss,1,362,0.6,20,0.4,50,HP-LP,f,734,HP,no-win
121,51,female,British,exp,5,42,exp,no,261,mixed,j,691,win,0,378,0.6,30,0.4,50,LP-HP,j,955,HP,no-win
121,51,female,British,exp,5,44,exp,yes,270,mixed,j,531,loss,1,350,0.7,10,0.3,50,HP-LP,f,618,HP,win
121,51,female,British,exp,5,46,exp,no,463,mixed,j,645,win,0,442,0.6,20,0.4,50,HP-LP,f,2165,HP,win
121,51,female,British,exp,5,48,catch,yes,567,mixed,j,682,win,0,500,0.6,0,0.2,40,HP-LP,j,1132,LP,no-win
121,51,female,British,exp,5,50,exp,yes,386,mixed,f,726,loss,1,330,0.7,30,0.3,40,LP-HP,j,788,HP,win
121,51,female,British,exp,5,52,exp,yes,660,mixed,j,1234,win,0,622,0.7,20,0.3,30,LP-HP,j,834,HP,win
121,51,female,British,exp,6,2,exp,yes,556,mixed,f,852,win,0,417,0.6,30,0.4,50,HP-LP,f,1143,HP,win
121,51,female,British,exp,6,4,exp,no,1065,mixed,j,712,win,0,617,0.6,10,0.4,40,HP-LP,j,1933,LP,no-win
121,51,female,British,exp,6,6,exp,no,300,mixed,j,366,loss,0,1500,0.7,10,0.3,30,HP-LP,f,706,HP,win
121,51,female,British,exp,6,8,exp,no,537,mixed,j,438,loss,1,491,0.8,10,0.2,20,LP-HP,j,664,HP,win
121,51,female,British,exp,6,10,exp,yes,509,mixed,j,428,win,2,335,0.8,20,0.2,30,HP-LP,f,899,HP,win
121,51,female,British,exp,6,12,catch,no,1000,mixed,f,768,loss,0,500,0.8,40,0.2,20,HP-LP,f,644,HP,no-win
121,51,female,British,exp,6,14,catch,yes,342,mixed,f,854,win,0,324,0.7,30,0.3,10,LP-HP,j,745,HP,win
121,51,female,British,exp,6,16,exp,yes,853,mixed,f,633,loss,0,289,0.7,20,0.3,30,HP-LP,f,845,HP,win
121,51,female,British,exp,6,18,exp,no,543,mixed,f,706,win,0,154,0.6,10,0.4,40,LP-HP,j,4952,HP,no-win
121,51,female,British,exp,6,20,exp,yes,284,mixed,f,740,loss,1,438,0.7,10,0.3,30,HP-LP,f,642,HP,win
121,51,female,British,exp,6,22,exp,yes,723,mixed,f,634,loss,1,344,0.6,10,0.4,40,LP-HP,j,586,HP,win
121,51,female,British,exp,6,24,exp,yes,455,mixed,j,429,win,0,373,0.7,10,0.3,30,HP-LP,f,836,HP,win
121,51,female,British,exp,6,26,exp,yes,806,mixed,j,311,win,1,375,0.6,10,0.4,40,LP-HP,j,753,HP,win
121,51,female,British,exp,6,28,exp,yes,972,mixed,j,775,loss,0,461,0.6,10,0.4,40,HP-LP,f,686,HP,no-win
121,51,female,British,exp,6,30,exp,no,414,mixed,j,435,loss,0,376,0.6,40,0.4,50,HP-LP,f,892,HP,win
121,51,female,British,exp,6,32,exp,no,467,mixed,f,414,loss,0,89,0.7,10,0.3,50,LP-HP,j,1183,HP,win
121,51,female,British,exp,6,34,exp,yes,306,mixed,j,530,win,1,357,0.7,30,0.3,40,LP-HP,j,692,HP,win
121,51,female,British,exp,6,36,exp,no,457,mixed,j,678,win,0,524,0.8,10,0.2,20,LP-HP,j,708,HP,win
121,51,female,British,exp,6,38,catch,no,322,mixed,j,598,win,0,111,0.8,0,0.3,20,HP-LP,j,1080,LP,no-win
121,51,female,British,exp,6,40,exp,yes,466,mixed,j,452,win,1,328,0.7,20,0.3,30,HP-LP,f,678,HP,win
121,51,female,British,exp,6,42,catch,yes,779,mixed,j,801,loss,2,982,0.8,50,0.2,30,LP-HP,j,640,HP,win
121,51,female,British,exp,6,44,exp,no,1054,mixed,f,809,win,0,1126,0.7,10,0.3,50,HP-LP,f,675,HP,win
121,51,female,British,exp,6,46,exp,no,1150,mixed,f,719,win,0,570,0.7,10,0.3,50,LP-HP,j,1349,HP,win
121,51,female,British,exp,6,48,catch,yes,2591,mixed,f,678,win,0,302,0.8,0,0.3,20,LP-HP,j,578,HP,no-win
121,51,female,British,exp,6,50,catch,yes,425,mixed,f,806,loss,0,584,0.7,0,0.4,30,HP-LP,j,1192,LP,win
121,51,female,British,exp,6,52,exp,no,1312,mixed,f,605,win,0,744,0.8,10,0.2,20,HP-LP,f,809,HP,win
