subject_ID,age,gender,nationality,exp_part,block_number,trial_number,trial_type,delay,game1_startRT,game1_color,game1_respKey,game1_respRT,game1_outcome,game2_delay_premature,game2_startRT,game2_HP_prob,game2_HP_amount,game2_LP_prob,game2_LP_amount,game2_pos,game2_respKey,game2_respRT,game2_choice,game2_outcome,unique_trial,HP_EV,LP_EV,high_EV_option,choose_high_EV,EV_ratio,game1_outcome_num,delay_num,game2_choose_HP
1,24,male,British,exp,3,10,exp,no,353,mixed,j,1226,loss,0,560,0.6,20,0.4,50,HP-LP,f,893,HP,no-win,1_exp_3_10,12,20,LP,no,-0.5,0.5,-0.5,1
1,24,male,British,exp,3,12,exp,yes,518,mixed,j,735,win,1,439,0.6,40,0.4,50,LP-HP,j,1511,HP,win,1_exp_3_12,24,20,HP,yes,0.18181818181818182,-0.5,0.5,1
1,24,male,British,exp,3,14,catch,no,441,mixed,j,699,win,0,472,0.8,10,0.7,50,LP-HP,j,1700,HP,win,1_exp_3_14,8,35,LP,no,-1.255813953488372,-0.5,-0.5,1
1,24,male,British,exp,3,16,catch,no,438,mixed,j,750,win,0,347,0.8,40,0.2,20,LP-HP,j,1076,HP,win,1_exp_3_16,32,4,HP,yes,1.5555555555555556,-0.5,-0.5,1
1,24,male,British,exp,3,18,catch,no,451,mixed,j,705,loss,0,466,0.8,50,0.2,30,LP-HP,j,751,HP,win,1_exp_3_18,40,6,HP,yes,1.4782608695652173,0.5,-0.5,1
1,24,male,British,exp,3,2,catch,no,1052,mixed,j,1041,loss,0,569,0.8,10,0.7,50,LP-HP,j,2274,HP,win,1_exp_3_2,8,35,LP,no,-1.255813953488372,0.5,-0.5,1
1,24,male,British,exp,3,20,exp,yes,381,mixed,f,698,loss,0,523,0.6,40,0.4,50,LP-HP,j,1093,HP,no-win,1_exp_3_20,24,20,HP,yes,0.18181818181818182,0.5,0.5,1
1,24,male,British,exp,3,22,exp,yes,397,mixed,f,669,win,0,404,0.6,40,0.4,50,HP-LP,f,1131,HP,win,1_exp_3_22,24,20,HP,yes,0.18181818181818182,-0.5,0.5,1
1,24,male,British,exp,3,24,exp,yes,289,mixed,j,691,win,0,448,0.7,10,0.3,50,HP-LP,f,833,HP,no-win,1_exp_3_24,7,15,LP,no,-0.7272727272727273,-0.5,0.5,1
1,24,male,British,exp,3,26,exp,yes,476,mixed,j,1289,win,0,490,0.8,10,0.2,20,LP-HP,j,845,HP,win,1_exp_3_26,8,4,HP,yes,0.6666666666666666,-0.5,0.5,1
1,24,male,British,exp,3,28,exp,yes,419,mixed,j,691,win,0,382,0.6,20,0.4,50,HP-LP,f,908,HP,win,1_exp_3_28,12,20,LP,no,-0.5,-0.5,0.5,1
1,24,male,British,exp,3,30,exp,no,629,mixed,j,615,loss,0,505,0.8,10,0.2,20,HP-LP,f,960,HP,win,1_exp_3_30,8,4,HP,yes,0.6666666666666666,0.5,-0.5,1
1,24,male,British,exp,3,32,catch,no,417,mixed,j,666,win,0,526,0.8,50,0.2,30,LP-HP,j,1057,HP,win,1_exp_3_32,40,6,HP,yes,1.4782608695652173,-0.5,-0.5,1
1,24,male,British,exp,3,34,exp,no,332,mixed,f,717,loss,0,480,0.6,10,0.4,40,LP-HP,j,819,HP,no-win,1_exp_3_34,6,16,LP,no,-0.9090909090909091,0.5,-0.5,1
1,24,male,British,exp,3,36,exp,yes,282,mixed,j,703,loss,1,368,0.7,10,0.3,30,HP-LP,f,693,HP,win,1_exp_3_36,7,9,LP,no,-0.25,0.5,0.5,1
1,24,male,British,exp,3,38,exp,no,417,mixed,j,1137,win,0,490,0.8,10,0.2,20,HP-LP,f,705,HP,win,1_exp_3_38,8,4,HP,yes,0.6666666666666666,-0.5,-0.5,1
1,24,male,British,exp,3,4,exp,no,552,mixed,j,891,loss,0,690,0.6,30,0.4,50,LP-HP,j,1583,HP,win,1_exp_3_4,18,20,LP,no,-0.10526315789473684,0.5,-0.5,1
1,24,male,British,exp,3,40,catch,no,414,mixed,f,469,win,0,470,0.7,10,0.6,50,LP-HP,j,2369,HP,win,1_exp_3_40,7,30,LP,no,-1.2432432432432432,-0.5,-0.5,1
1,24,male,British,exp,3,42,exp,yes,307,mixed,j,655,win,0,430,0.7,20,0.3,30,LP-HP,j,909,HP,win,1_exp_3_42,14,9,HP,yes,0.43478260869565216,-0.5,0.5,1
1,24,male,British,exp,3,44,exp,no,398,mixed,j,647,loss,0,407,0.6,40,0.4,50,HP-LP,f,718,HP,win,1_exp_3_44,24,20,HP,yes,0.18181818181818182,0.5,-0.5,1
1,24,male,British,exp,3,46,exp,yes,340,mixed,f,694,win,0,423,0.8,20,0.2,30,HP-LP,f,614,HP,win,1_exp_3_46,16,6,HP,yes,0.9090909090909091,-0.5,0.5,1
1,24,male,British,exp,3,48,exp,yes,273,mixed,j,540,win,0,399,0.6,20,0.4,50,LP-HP,j,885,HP,win,1_exp_3_48,12,20,LP,no,-0.5,-0.5,0.5,1
1,24,male,British,exp,3,50,exp,yes,361,mixed,f,616,loss,0,357,0.7,10,0.3,30,LP-HP,j,555,HP,win,1_exp_3_50,7,9,LP,no,-0.25,0.5,0.5,1
1,24,male,British,exp,3,52,exp,no,313,mixed,f,462,win,0,487,0.7,30,0.3,40,HP-LP,f,884,HP,win,1_exp_3_52,21,12,HP,yes,0.5454545454545454,-0.5,-0.5,1
1,24,male,British,exp,3,6,exp,no,605,mixed,f,764,win,0,550,0.6,10,0.4,40,HP-LP,f,1267,HP,no-win,1_exp_3_6,6,16,LP,no,-0.9090909090909091,-0.5,-0.5,1
1,24,male,British,exp,3,8,exp,no,765,mixed,j,755,win,0,563,0.8,10,0.2,20,LP-HP,j,862,HP,win,1_exp_3_8,8,4,HP,yes,0.6666666666666666,-0.5,-0.5,1
1,24,male,British,exp,4,10,exp,no,278,mixed,j,775,loss,0,352,0.8,20,0.2,30,HP-LP,f,733,HP,win,1_exp_4_10,16,6,HP,yes,0.9090909090909091,0.5,-0.5,1
1,24,male,British,exp,4,12,exp,no,493,mixed,f,391,win,0,290,0.7,10,0.3,30,HP-LP,j,822,LP,no-win,1_exp_4_12,7,9,LP,yes,-0.25,-0.5,-0.5,0
1,24,male,British,exp,4,14,exp,yes,273,mixed,f,929,loss,0,387,0.7,20,0.3,30,HP-LP,f,693,HP,no-win,1_exp_4_14,14,9,HP,yes,0.43478260869565216,0.5,0.5,1
1,24,male,British,exp,4,16,catch,no,229,mixed,f,821,loss,0,353,0.8,50,0.2,30,HP-LP,f,619,HP,win,1_exp_4_16,40,6,HP,yes,1.4782608695652173,0.5,-0.5,1
1,24,male,British,exp,4,18,catch,no,292,mixed,j,359,win,0,385,0.6,10,0.5,50,HP-LP,f,1296,HP,no-win,1_exp_4_18,6,25,LP,no,-1.2258064516129032,-0.5,-0.5,1
1,24,male,British,exp,4,2,exp,no,868,mixed,j,627,loss,0,494,0.7,10,0.3,50,HP-LP,f,674,HP,win,1_exp_4_2,7,15,LP,no,-0.7272727272727273,0.5,-0.5,1
1,24,male,British,exp,4,20,exp,no,223,mixed,j,634,win,0,274,0.7,10,0.3,30,LP-HP,j,1543,HP,win,1_exp_4_20,7,9,LP,no,-0.25,-0.5,-0.5,1
1,24,male,British,exp,4,22,exp,yes,248,mixed,j,635,win,0,376,0.6,30,0.4,50,HP-LP,f,806,HP,win,1_exp_4_22,18,20,LP,no,-0.10526315789473684,-0.5,0.5,1
1,24,male,British,exp,4,24,exp,no,424,mixed,j,543,win,0,522,0.6,20,0.4,50,HP-LP,f,1113,HP,no-win,1_exp_4_24,12,20,LP,no,-0.5,-0.5,-0.5,1
1,24,male,British,exp,4,26,exp,no,295,mixed,j,667,loss,0,364,0.7,10,0.3,30,HP-LP,f,753,HP,no-win,1_exp_4_26,7,9,LP,no,-0.25,0.5,-0.5,1
1,24,male,British,exp,4,28,exp,yes,268,mixed,j,591,loss,0,399,0.8,20,0.2,30,HP-LP,f,634,HP,win,1_exp_4_28,16,6,HP,yes,0.9090909090909091,0.5,0.5,1
1,24,male,British,exp,4,30,catch,no,410,mixed,j,580,loss,0,406,0.8,40,0.2,20,HP-LP,f,665,HP,win,1_exp_4_30,32,4,HP,yes,1.5555555555555556,0.5,-0.5,1
1,24,male,British,exp,4,32,exp,no,264,mixed,f,451,loss,0,446,0.6,30,0.4,50,HP-LP,f,829,HP,win,1_exp_4_32,18,20,LP,no,-0.10526315789473684,0.5,-0.5,1
1,24,male,British,exp,4,34,exp,no,335,mixed,f,359,win,0,290,0.7,20,0.3,30,HP-LP,f,637,HP,no-win,1_exp_4_34,14,9,HP,yes,0.43478260869565216,-0.5,-0.5,1
1,24,male,British,exp,4,36,catch,no,299,mixed,j,483,win,0,419,0.8,10,0.7,50,HP-LP,f,753,HP,win,1_exp_4_36,8,35,LP,no,-1.255813953488372,-0.5,-0.5,1
1,24,male,British,exp,4,38,exp,no,237,mixed,j,1101,win,0,457,0.6,10,0.4,40,LP-HP,j,888,HP,win,1_exp_4_38,6,16,LP,no,-0.9090909090909091,-0.5,-0.5,1
1,24,male,British,exp,4,4,catch,no,369,mixed,j,598,win,0,478,0.8,40,0.2,20,HP-LP,f,709,HP,win,1_exp_4_4,32,4,HP,yes,1.5555555555555556,-0.5,-0.5,1
1,24,male,British,exp,4,40,exp,yes,236,mixed,f,634,loss,0,512,0.6,40,0.4,50,HP-LP,f,788,HP,no-win,1_exp_4_40,24,20,HP,yes,0.18181818181818182,0.5,0.5,1
1,24,male,British,exp,4,42,exp,no,252,mixed,f,1026,win,0,318,0.6,40,0.4,50,HP-LP,f,826,HP,no-win,1_exp_4_42,24,20,HP,yes,0.18181818181818182,-0.5,-0.5,1
1,24,male,British,exp,4,44,exp,no,249,mixed,j,655,win,0,426,0.7,20,0.3,30,LP-HP,j,730,HP,win,1_exp_4_44,14,9,HP,yes,0.43478260869565216,-0.5,-0.5,1
1,24,male,British,exp,4,46,catch,no,269,mixed,j,622,loss,0,529,0.7,30,0.3,10,HP-LP,f,505,HP,win,1_exp_4_46,21,3,HP,yes,1.5,0.5,-0.5,1
1,24,male,British,exp,4,48,exp,yes,278,mixed,j,595,win,1,440,0.7,10,0.3,50,LP-HP,j,621,HP,win,1_exp_4_48,7,15,LP,no,-0.7272727272727273,-0.5,0.5,1
1,24,male,British,exp,4,50,exp,yes,406,mixed,f,582,loss,1,347,0.7,20,0.3,30,LP-HP,j,550,HP,no-win,1_exp_4_50,14,9,HP,yes,0.43478260869565216,0.5,0.5,1
1,24,male,British,exp,4,52,exp,yes,271,mixed,j,567,loss,0,382,0.6,20,0.4,50,HP-LP,f,729,HP,win,1_exp_4_52,12,20,LP,no,-0.5,0.5,0.5,1
1,24,male,British,exp,4,6,exp,yes,342,mixed,f,688,win,0,328,0.8,20,0.2,30,LP-HP,j,635,HP,win,1_exp_4_6,16,6,HP,yes,0.9090909090909091,-0.5,0.5,1
1,24,male,British,exp,4,8,exp,no,260,mixed,j,618,win,0,322,0.8,20,0.2,30,HP-LP,f,551,HP,win,1_exp_4_8,16,6,HP,yes,0.9090909090909091,-0.5,-0.5,1
1,24,male,British,exp,5,10,exp,no,258,mixed,j,292,loss,0,461,0.8,10,0.2,20,LP-HP,j,565,HP,no-win,1_exp_5_10,8,4,HP,yes,0.6666666666666666,0.5,-0.5,1
1,24,male,British,exp,5,12,exp,yes,297,mixed,j,607,loss,0,423,0.8,20,0.2,30,LP-HP,j,537,HP,win,1_exp_5_12,16,6,HP,yes,0.9090909090909091,0.5,0.5,1
1,24,male,British,exp,5,14,exp,no,518,mixed,j,325,win,0,313,0.7,30,0.3,40,LP-HP,j,886,HP,win,1_exp_5_14,21,12,HP,yes,0.5454545454545454,-0.5,-0.5,1
1,24,male,British,exp,5,16,exp,no,346,mixed,f,402,win,0,436,0.6,30,0.4,50,LP-HP,j,859,HP,no-win,1_exp_5_16,18,20,LP,no,-0.10526315789473684,-0.5,-0.5,1
1,24,male,British,exp,5,18,catch,no,507,mixed,f,1379,loss,0,308,0.8,10,0.7,50,HP-LP,f,917,HP,win,1_exp_5_18,8,35,LP,no,-1.255813953488372,0.5,-0.5,1
1,24,male,British,exp,5,2,exp,yes,801,mixed,j,694,loss,0,488,0.7,10,0.3,50,HP-LP,f,463,HP,win,1_exp_5_2,7,15,LP,no,-0.7272727272727273,0.5,0.5,1
1,24,male,British,exp,5,20,exp,no,267,mixed,j,582,loss,0,433,0.7,10,0.3,30,LP-HP,j,722,HP,win,1_exp_5_20,7,9,LP,no,-0.25,0.5,-0.5,1
1,24,male,British,exp,5,22,catch,no,2057,mixed,j,371,win,0,400,0.8,50,0.2,30,HP-LP,f,654,HP,no-win,1_exp_5_22,40,6,HP,yes,1.4782608695652173,-0.5,-0.5,1
1,24,male,British,exp,5,24,catch,no,246,mixed,j,563,loss,0,407,0.6,10,0.5,50,LP-HP,j,922,HP,win,1_exp_5_24,6,25,LP,no,-1.2258064516129032,0.5,-0.5,1
1,24,male,British,exp,5,26,catch,no,233,mixed,j,680,win,0,322,0.6,10,0.5,50,LP-HP,j,966,HP,win,1_exp_5_26,6,25,LP,no,-1.2258064516129032,-0.5,-0.5,1
1,24,male,British,exp,5,28,exp,yes,74,mixed,j,655,win,1,377,0.8,10,0.2,20,HP-LP,f,622,HP,win,1_exp_5_28,8,4,HP,yes,0.6666666666666666,-0.5,0.5,1
1,24,male,British,exp,5,30,exp,no,238,mixed,j,526,loss,0,310,0.6,40,0.4,50,LP-HP,j,1000,HP,no-win,1_exp_5_30,24,20,HP,yes,0.18181818181818182,0.5,-0.5,1
1,24,male,British,exp,5,32,exp,no,415,mixed,f,299,loss,0,489,0.7,30,0.3,40,HP-LP,f,837,HP,no-win,1_exp_5_32,21,12,HP,yes,0.5454545454545454,0.5,-0.5,1
1,24,male,British,exp,5,34,exp,no,252,mixed,f,214,loss,0,370,0.8,20,0.2,30,LP-HP,j,551,HP,win,1_exp_5_34,16,6,HP,yes,0.9090909090909091,0.5,-0.5,1
1,24,male,British,exp,5,36,catch,no,288,mixed,f,386,win,0,294,0.7,10,0.6,50,HP-LP,f,1181,HP,win,1_exp_5_36,7,30,LP,no,-1.2432432432432432,-0.5,-0.5,1
1,24,male,British,exp,5,38,exp,no,209,mixed,j,603,loss,0,257,0.7,20,0.3,30,LP-HP,j,748,HP,win,1_exp_5_38,14,9,HP,yes,0.43478260869565216,0.5,-0.5,1
1,24,male,British,exp,5,4,exp,yes,362,mixed,f,599,loss,0,437,0.8,10,0.2,20,HP-LP,f,546,HP,win,1_exp_5_4,8,4,HP,yes,0.6666666666666666,0.5,0.5,1
1,24,male,British,exp,5,40,exp,yes,243,mixed,j,603,win,0,397,0.7,30,0.3,40,HP-LP,f,641,HP,no-win,1_exp_5_40,21,12,HP,yes,0.5454545454545454,-0.5,0.5,1
1,24,male,British,exp,5,42,exp,yes,398,mixed,f,407,loss,0,411,0.6,20,0.4,50,LP-HP,j,698,HP,win,1_exp_5_42,12,20,LP,no,-0.5,0.5,0.5,1
1,24,male,British,exp,5,44,exp,yes,525,mixed,j,508,win,0,405,0.6,10,0.4,40,LP-HP,j,902,HP,win,1_exp_5_44,6,16,LP,no,-0.9090909090909091,-0.5,0.5,1
1,24,male,British,exp,5,46,exp,yes,430,mixed,j,551,win,0,422,0.6,10,0.4,40,HP-LP,f,594,HP,win,1_exp_5_46,6,16,LP,no,-0.9090909090909091,-0.5,0.5,1
1,24,male,British,exp,5,48,exp,yes,644,mixed,j,599,win,0,600,0.7,30,0.3,40,LP-HP,j,581,HP,no-win,1_exp_5_48,21,12,HP,yes,0.5454545454545454,-0.5,0.5,1
1,24,male,British,exp,5,50,catch,no,503,mixed,j,539,loss,0,420,0.7,10,0.6,50,LP-HP,f,949,LP,win,1_exp_5_50,7,30,LP,yes,-1.2432432432432432,0.5,-0.5,0
1,24,male,British,exp,5,52,exp,no,343,mixed,j,555,win,0,400,0.6,20,0.4,50,LP-HP,j,977,HP,win,1_exp_5_52,12,20,LP,no,-0.5,-0.5,-0.5,1
1,24,male,British,exp,5,6,exp,yes,393,mixed,f,774,win,0,449,0.7,10,0.3,30,LP-HP,j,770,HP,win,1_exp_5_6,7,9,LP,no,-0.25,-0.5,0.5,1
1,24,male,British,exp,5,8,exp,no,506,mixed,j,428,loss,0,463,0.6,20,0.4,50,LP-HP,j,1097,HP,no-win,1_exp_5_8,12,20,LP,no,-0.5,0.5,-0.5,1
1,24,male,British,exp,6,10,exp,yes,316,mixed,f,350,loss,1,442,0.6,10,0.4,40,LP-HP,j,701,HP,win,1_exp_6_10,6,16,LP,no,-0.9090909090909091,0.5,0.5,1
1,24,male,British,exp,6,12,catch,no,359,mixed,j,249,loss,0,360,0.8,40,0.2,20,LP-HP,j,563,HP,win,1_exp_6_12,32,4,HP,yes,1.5555555555555556,0.5,-0.5,1
1,24,male,British,exp,6,14,exp,yes,322,mixed,j,1037,loss,0,380,0.7,10,0.3,50,LP-HP,j,483,HP,win,1_exp_6_14,7,15,LP,no,-0.7272727272727273,0.5,0.5,1
1,24,male,British,exp,6,16,exp,yes,351,mixed,j,230,loss,0,373,0.7,30,0.3,40,HP-LP,f,581,HP,win,1_exp_6_16,21,12,HP,yes,0.5454545454545454,0.5,0.5,1
1,24,male,British,exp,6,18,catch,no,309,mixed,j,252,loss,0,683,0.7,10,0.6,50,HP-LP,f,701,HP,win,1_exp_6_18,7,30,LP,no,-1.2432432432432432,0.5,-0.5,1
1,24,male,British,exp,6,2,catch,no,502,mixed,j,555,loss,0,331,0.6,10,0.5,50,HP-LP,f,447,HP,win,1_exp_6_2,6,25,LP,no,-1.2258064516129032,0.5,-0.5,1
1,24,male,British,exp,6,20,exp,yes,287,mixed,j,326,win,0,332,0.7,20,0.3,30,HP-LP,f,534,HP,win,1_exp_6_20,14,9,HP,yes,0.43478260869565216,-0.5,0.5,1
1,24,male,British,exp,6,22,exp,yes,419,mixed,j,822,loss,0,434,0.6,30,0.4,50,LP-HP,f,1909,LP,win,1_exp_6_22,18,20,LP,yes,-0.10526315789473684,0.5,0.5,0
1,24,male,British,exp,6,24,exp,no,336,mixed,j,587,loss,0,491,0.6,10,0.4,40,HP-LP,j,1232,LP,win,1_exp_6_24,6,16,LP,yes,-0.9090909090909091,0.5,-0.5,0
1,24,male,British,exp,6,26,exp,yes,422,mixed,j,583,win,0,382,0.6,30,0.4,50,LP-HP,f,870,LP,win,1_exp_6_26,18,20,LP,yes,-0.10526315789473684,-0.5,0.5,0
1,24,male,British,exp,6,28,catch,no,384,mixed,j,635,win,0,605,0.7,30,0.3,10,HP-LP,j,1051,LP,no-win,1_exp_6_28,21,3,HP,no,1.5,-0.5,-0.5,0
1,24,male,British,exp,6,30,exp,yes,407,mixed,j,507,win,0,508,0.7,10,0.3,30,HP-LP,j,1416,LP,win,1_exp_6_30,7,9,LP,yes,-0.25,-0.5,0.5,0
1,24,male,British,exp,6,32,exp,no,463,mixed,j,594,win,0,402,0.6,40,0.4,50,LP-HP,f,2206,LP,no-win,1_exp_6_32,24,20,HP,no,0.18181818181818182,-0.5,-0.5,0
1,24,male,British,exp,6,34,exp,no,454,mixed,j,639,win,0,342,0.7,10,0.3,50,LP-HP,f,1399,LP,no-win,1_exp_6_34,7,15,LP,yes,-0.7272727272727273,-0.5,-0.5,0
1,24,male,British,exp,6,36,exp,yes,452,mixed,j,491,loss,0,429,0.7,30,0.3,40,LP-HP,f,1292,LP,no-win,1_exp_6_36,21,12,HP,no,0.5454545454545454,0.5,0.5,0
1,24,male,British,exp,6,38,exp,no,434,mixed,j,495,loss,0,486,0.7,20,0.3,30,HP-LP,j,1521,LP,no-win,1_exp_6_38,14,9,HP,no,0.43478260869565216,0.5,-0.5,0
1,24,male,British,exp,6,4,exp,no,257,mixed,j,540,win,0,439,0.6,30,0.4,50,HP-LP,f,894,HP,no-win,1_exp_6_4,18,20,LP,no,-0.10526315789473684,-0.5,-0.5,1
1,24,male,British,exp,6,40,exp,no,320,mixed,j,519,loss,0,450,0.7,30,0.3,40,LP-HP,j,2141,HP,win,1_exp_6_40,21,12,HP,yes,0.5454545454545454,0.5,-0.5,1
1,24,male,British,exp,6,42,exp,yes,392,mixed,j,560,loss,0,408,0.6,10,0.4,40,HP-LP,j,1934,LP,no-win,1_exp_6_42,6,16,LP,yes,-0.9090909090909091,0.5,0.5,0
1,24,male,British,exp,6,44,exp,yes,362,mixed,j,515,loss,0,394,0.6,30,0.4,50,HP-LP,j,1755,LP,no-win,1_exp_6_44,18,20,LP,yes,-0.10526315789473684,0.5,0.5,0
1,24,male,British,exp,6,46,exp,no,365,mixed,j,687,win,0,376,0.8,20,0.2,30,LP-HP,j,852,HP,win,1_exp_6_46,16,6,HP,yes,0.9090909090909091,-0.5,-0.5,1
1,24,male,British,exp,6,48,catch,no,295,mixed,j,498,loss,0,308,0.7,30,0.3,10,LP-HP,j,1017,HP,win,1_exp_6_48,21,3,HP,yes,1.5,0.5,-0.5,1
1,24,male,British,exp,6,50,exp,no,549,mixed,j,623,win,0,453,0.7,10,0.3,50,HP-LP,f,2001,HP,win,1_exp_6_50,7,15,LP,no,-0.7272727272727273,-0.5,-0.5,1
1,24,male,British,exp,6,52,catch,no,354,mixed,j,535,win,0,368,0.7,30,0.3,10,LP-HP,j,969,HP,no-win,1_exp_6_52,21,3,HP,yes,1.5,-0.5,-0.5,1
1,24,male,British,exp,6,6,exp,yes,439,mixed,j,536,loss,0,354,0.8,10,0.2,20,LP-HP,j,566,HP,win,1_exp_6_6,8,4,HP,yes,0.6666666666666666,0.5,0.5,1
1,24,male,British,exp,6,8,exp,no,440,mixed,f,557,loss,0,389,0.7,10,0.3,50,LP-HP,j,668,HP,no-win,1_exp_6_8,7,15,LP,no,-0.7272727272727273,0.5,-0.5,1
10,27,male,Latvian,exp,3,10,catch,no,371,mixed,j,916,loss,0,445,0.8,50,0.2,30,HP-LP,f,1063,HP,win,10_exp_3_10,40,6,HP,yes,1.4782608695652173,0.5,-0.5,1
10,27,male,Latvian,exp,3,12,exp,yes,489,mixed,j,2000,loss,1,395,0.7,10,0.3,30,HP-LP,f,812,HP,win,10_exp_3_12,7,9,LP,no,-0.25,0.5,0.5,1
10,27,male,Latvian,exp,3,14,exp,no,262,mixed,f,1012,win,0,611,0.7,10,0.3,30,HP-LP,f,1098,HP,no-win,10_exp_3_14,7,9,LP,no,-0.25,-0.5,-0.5,1
10,27,male,Latvian,exp,3,16,exp,no,460,mixed,j,1136,win,0,405,0.6,40,0.4,50,LP-HP,f,791,LP,no-win,10_exp_3_16,24,20,HP,no,0.18181818181818182,-0.5,-0.5,0
10,27,male,Latvian,exp,3,18,exp,yes,393,mixed,f,1223,win,0,483,0.6,30,0.4,50,HP-LP,f,921,HP,win,10_exp_3_18,18,20,LP,no,-0.10526315789473684,-0.5,0.5,1
10,27,male,Latvian,exp,3,2,exp,no,1317,mixed,j,1418,win,0,405,0.6,10,0.4,40,HP-LP,f,1930,HP,win,10_exp_3_2,6,16,LP,no,-0.9090909090909091,-0.5,-0.5,1
10,27,male,Latvian,exp,3,20,catch,no,436,mixed,j,943,win,0,505,0.8,10,0.7,50,HP-LP,j,1829,LP,no-win,10_exp_3_20,8,35,LP,yes,-1.255813953488372,-0.5,-0.5,0
10,27,male,Latvian,exp,3,22,exp,no,2746,mixed,f,620,loss,0,432,0.6,30,0.4,50,HP-LP,f,1002,HP,win,10_exp_3_22,18,20,LP,no,-0.10526315789473684,0.5,-0.5,1
10,27,male,Latvian,exp,3,24,exp,yes,288,mixed,f,576,win,0,490,0.8,10,0.2,20,HP-LP,f,782,HP,win,10_exp_3_24,8,4,HP,yes,0.6666666666666666,-0.5,0.5,1
10,27,male,Latvian,exp,3,26,exp,yes,255,mixed,f,496,win,1,299,0.6,20,0.4,50,HP-LP,f,1013,HP,win,10_exp_3_26,12,20,LP,no,-0.5,-0.5,0.5,1
10,27,male,Latvian,exp,3,28,catch,no,360,mixed,j,642,loss,0,586,0.8,40,0.2,20,HP-LP,f,822,HP,win,10_exp_3_28,32,4,HP,yes,1.5555555555555556,0.5,-0.5,1
10,27,male,Latvian,exp,3,30,exp,yes,427,mixed,j,380,win,0,952,0.7,30,0.3,40,HP-LP,f,807,HP,win,10_exp_3_30,21,12,HP,yes,0.5454545454545454,-0.5,0.5,1
10,27,male,Latvian,exp,3,32,exp,no,452,mixed,f,577,loss,0,496,0.7,30,0.3,40,HP-LP,f,691,HP,no-win,10_exp_3_32,21,12,HP,yes,0.5454545454545454,0.5,-0.5,1
10,27,male,Latvian,exp,3,34,exp,no,241,mixed,f,294,win,0,457,0.7,10,0.3,50,LP-HP,j,807,HP,win,10_exp_3_34,7,15,LP,no,-0.7272727272727273,-0.5,-0.5,1
10,27,male,Latvian,exp,3,36,exp,yes,271,mixed,j,501,loss,1,552,0.7,30,0.3,40,LP-HP,j,670,HP,win,10_exp_3_36,21,12,HP,yes,0.5454545454545454,0.5,0.5,1
10,27,male,Latvian,exp,3,38,exp,no,288,mixed,j,531,loss,0,391,0.6,40,0.4,50,HP-LP,f,906,HP,win,10_exp_3_38,24,20,HP,yes,0.18181818181818182,0.5,-0.5,1
10,27,male,Latvian,exp,3,4,exp,yes,655,mixed,j,1057,loss,1,409,0.6,10,0.4,40,LP-HP,j,1434,HP,win,10_exp_3_4,6,16,LP,no,-0.9090909090909091,0.5,0.5,1
10,27,male,Latvian,exp,3,40,exp,no,253,mixed,f,259,loss,0,363,0.8,10,0.2,20,LP-HP,j,595,HP,win,10_exp_3_40,8,4,HP,yes,0.6666666666666666,0.5,-0.5,1
10,27,male,Latvian,exp,3,42,catch,no,102,mixed,j,682,loss,0,283,0.8,10,0.7,50,LP-HP,f,1037,LP,no-win,10_exp_3_42,8,35,LP,yes,-1.255813953488372,0.5,-0.5,0
10,27,male,Latvian,exp,3,44,exp,yes,270,mixed,j,872,loss,1,2353,0.6,30,0.4,50,HP-LP,j,1910,LP,win,10_exp_3_44,18,20,LP,yes,-0.10526315789473684,0.5,0.5,0
10,27,male,Latvian,exp,3,46,exp,no,251,mixed,j,1148,win,0,291,0.7,20,0.3,30,HP-LP,f,765,HP,win,10_exp_3_46,14,9,HP,yes,0.43478260869565216,-0.5,-0.5,1
10,27,male,Latvian,exp,3,48,catch,no,262,mixed,f,817,loss,0,357,0.8,40,0.2,20,LP-HP,j,859,HP,win,10_exp_3_48,32,4,HP,yes,1.5555555555555556,0.5,-0.5,1
10,27,male,Latvian,exp,3,50,catch,no,270,mixed,j,641,loss,0,443,0.7,10,0.6,50,LP-HP,f,1117,LP,win,10_exp_3_50,7,30,LP,yes,-1.2432432432432432,0.5,-0.5,0
10,27,male,Latvian,exp,3,52,exp,yes,77,mixed,f,220,win,1,320,0.6,10,0.4,40,HP-LP,f,1410,HP,no-win,10_exp_3_52,6,16,LP,no,-0.9090909090909091,-0.5,0.5,1
10,27,male,Latvian,exp,3,6,exp,no,472,mixed,f,1142,loss,0,432,0.6,10,0.4,40,HP-LP,f,1484,HP,no-win,10_exp_3_6,6,16,LP,no,-0.9090909090909091,0.5,-0.5,1
10,27,male,Latvian,exp,3,8,exp,no,454,mixed,j,1237,loss,0,654,0.7,10,0.3,30,LP-HP,j,972,HP,no-win,10_exp_3_8,7,9,LP,no,-0.25,0.5,-0.5,1
10,27,male,Latvian,exp,4,10,exp,no,284,mixed,j,600,win,0,264,0.6,40,0.4,50,HP-LP,f,1619,HP,win,10_exp_4_10,24,20,HP,yes,0.18181818181818182,-0.5,-0.5,1
10,27,male,Latvian,exp,4,12,exp,no,298,mixed,j,265,loss,0,212,0.6,10,0.4,40,LP-HP,f,1297,LP,win,10_exp_4_12,6,16,LP,yes,-0.9090909090909091,0.5,-0.5,0
10,27,male,Latvian,exp,4,14,exp,no,252,mixed,j,256,win,0,238,0.8,10,0.2,20,LP-HP,f,581,LP,no-win,10_exp_4_14,8,4,HP,no,0.6666666666666666,-0.5,-0.5,0
10,27,male,Latvian,exp,4,16,catch,no,321,mixed,j,1012,loss,0,384,0.7,30,0.3,10,LP-HP,j,816,HP,no-win,10_exp_4_16,21,3,HP,yes,1.5,0.5,-0.5,1
10,27,male,Latvian,exp,4,18,exp,no,490,mixed,f,636,loss,0,291,0.6,40,0.4,50,LP-HP,f,1118,LP,no-win,10_exp_4_18,24,20,HP,no,0.18181818181818182,0.5,-0.5,0
10,27,male,Latvian,exp,4,2,exp,yes,805,mixed,j,621,win,1,448,0.6,30,0.4,50,LP-HP,j,816,HP,no-win,10_exp_4_2,18,20,LP,no,-0.10526315789473684,-0.5,0.5,1
10,27,male,Latvian,exp,4,20,exp,no,702,mixed,j,1097,win,0,279,0.7,30,0.3,40,LP-HP,j,1122,HP,win,10_exp_4_20,21,12,HP,yes,0.5454545454545454,-0.5,-0.5,1
10,27,male,Latvian,exp,4,22,exp,yes,272,mixed,j,408,win,1,346,0.6,10,0.4,40,LP-HP,f,1022,LP,no-win,10_exp_4_22,6,16,LP,yes,-0.9090909090909091,-0.5,0.5,0
10,27,male,Latvian,exp,4,24,catch,no,225,mixed,f,135,win,0,248,0.6,10,0.5,50,LP-HP,f,917,LP,no-win,10_exp_4_24,6,25,LP,yes,-1.2258064516129032,-0.5,-0.5,0
10,27,male,Latvian,exp,4,26,exp,yes,211,mixed,f,145,win,1,349,0.6,40,0.4,50,LP-HP,f,1238,LP,no-win,10_exp_4_26,24,20,HP,no,0.18181818181818182,-0.5,0.5,0
10,27,male,Latvian,exp,4,28,exp,yes,243,mixed,f,154,loss,1,405,0.7,10,0.3,30,LP-HP,j,430,HP,win,10_exp_4_28,7,9,LP,no,-0.25,0.5,0.5,1
10,27,male,Latvian,exp,4,30,exp,yes,238,mixed,f,195,loss,1,346,0.6,20,0.4,50,LP-HP,f,812,LP,no-win,10_exp_4_30,12,20,LP,yes,-0.5,0.5,0.5,0
10,27,male,Latvian,exp,4,32,catch,no,303,mixed,j,215,loss,0,794,0.7,10,0.6,50,HP-LP,j,887,LP,win,10_exp_4_32,7,30,LP,yes,-1.2432432432432432,0.5,-0.5,0
10,27,male,Latvian,exp,4,34,exp,no,246,mixed,f,173,loss,0,450,0.7,20,0.3,30,HP-LP,f,1102,HP,win,10_exp_4_34,14,9,HP,yes,0.43478260869565216,0.5,-0.5,1
10,27,male,Latvian,exp,4,36,exp,no,336,mixed,f,180,win,0,1143,0.6,10,0.4,40,LP-HP,f,932,LP,no-win,10_exp_4_36,6,16,LP,yes,-0.9090909090909091,-0.5,-0.5,0
10,27,male,Latvian,exp,4,38,catch,no,335,mixed,f,429,loss,0,500,0.6,10,0.5,50,LP-HP,f,827,LP,win,10_exp_4_38,6,25,LP,yes,-1.2258064516129032,0.5,-0.5,0
10,27,male,Latvian,exp,4,4,exp,yes,355,mixed,f,265,loss,0,366,0.6,10,0.4,40,HP-LP,j,1498,LP,win,10_exp_4_4,6,16,LP,yes,-0.9090909090909091,0.5,0.5,0
10,27,male,Latvian,exp,4,40,exp,yes,466,mixed,j,670,win,0,417,0.7,10,0.3,30,LP-HP,j,1664,HP,no-win,10_exp_4_40,7,9,LP,no,-0.25,-0.5,0.5,1
10,27,male,Latvian,exp,4,42,exp,yes,418,mixed,f,741,win,0,299,0.8,10,0.2,20,LP-HP,j,998,HP,win,10_exp_4_42,8,4,HP,yes,0.6666666666666666,-0.5,0.5,1
10,27,male,Latvian,exp,4,44,catch,no,320,mixed,j,406,win,0,260,0.8,40,0.2,20,HP-LP,f,440,HP,win,10_exp_4_44,32,4,HP,yes,1.5555555555555556,-0.5,-0.5,1
10,27,male,Latvian,exp,4,46,exp,yes,308,mixed,j,255,win,0,337,0.7,10,0.3,30,HP-LP,f,1598,HP,win,10_exp_4_46,7,9,LP,no,-0.25,-0.5,0.5,1
10,27,male,Latvian,exp,4,48,exp,no,292,mixed,j,210,loss,0,405,0.7,10,0.3,50,HP-LP,j,1448,LP,no-win,10_exp_4_48,7,15,LP,yes,-0.7272727272727273,0.5,-0.5,0
10,27,male,Latvian,exp,4,50,catch,no,344,mixed,f,149,win,0,409,0.6,10,0.5,50,HP-LP,j,953,LP,win,10_exp_4_50,6,25,LP,yes,-1.2258064516129032,-0.5,-0.5,0
10,27,male,Latvian,exp,4,52,exp,no,330,mixed,f,250,loss,0,378,0.7,10,0.3,30,HP-LP,j,259,LP,no-win,10_exp_4_52,7,9,LP,yes,-0.25,0.5,-0.5,0
10,27,male,Latvian,exp,4,6,exp,yes,277,mixed,j,631,loss,1,414,0.7,30,0.3,40,HP-LP,f,916,HP,no-win,10_exp_4_6,21,12,HP,yes,0.5454545454545454,0.5,0.5,1
10,27,male,Latvian,exp,4,8,exp,no,287,mixed,j,710,win,0,396,0.8,20,0.2,30,HP-LP,f,782,HP,win,10_exp_4_8,16,6,HP,yes,0.9090909090909091,-0.5,-0.5,1
10,27,male,Latvian,exp,5,10,exp,yes,217,mixed,f,180,win,0,458,0.7,20,0.3,30,HP-LP,f,1282,HP,win,10_exp_5_10,14,9,HP,yes,0.43478260869565216,-0.5,0.5,1
10,27,male,Latvian,exp,5,12,catch,no,262,mixed,f,155,loss,0,406,0.8,10,0.7,50,HP-LP,j,796,LP,win,10_exp_5_12,8,35,LP,yes,-1.255813953488372,0.5,-0.5,0
10,27,male,Latvian,exp,5,14,exp,yes,249,mixed,j,200,loss,0,439,0.7,20,0.3,30,LP-HP,j,672,HP,win,10_exp_5_14,14,9,HP,yes,0.43478260869565216,0.5,0.5,1
10,27,male,Latvian,exp,5,16,exp,no,237,mixed,j,160,win,0,418,0.7,10,0.3,30,LP-HP,j,711,HP,win,10_exp_5_16,7,9,LP,no,-0.25,-0.5,-0.5,1
10,27,male,Latvian,exp,5,18,exp,no,307,mixed,j,220,loss,0,417,0.7,30,0.3,40,LP-HP,j,656,HP,win,10_exp_5_18,21,12,HP,yes,0.5454545454545454,0.5,-0.5,1
10,27,male,Latvian,exp,5,2,exp,yes,731,mixed,j,581,win,0,486,0.7,30,0.3,40,LP-HP,j,916,HP,win,10_exp_5_2,21,12,HP,yes,0.5454545454545454,-0.5,0.5,1
10,27,male,Latvian,exp,5,20,exp,no,149,mixed,f,205,loss,0,352,0.7,20,0.3,30,LP-HP,f,395,LP,no-win,10_exp_5_20,14,9,HP,no,0.43478260869565216,0.5,-0.5,0
10,27,male,Latvian,exp,5,22,exp,yes,247,mixed,f,185,loss,2,444,0.7,10,0.3,50,LP-HP,j,1083,HP,win,10_exp_5_22,7,15,LP,no,-0.7272727272727273,0.5,0.5,1
10,27,male,Latvian,exp,5,24,exp,no,237,mixed,f,145,win,0,512,0.8,20,0.2,30,LP-HP,j,620,HP,no-win,10_exp_5_24,16,6,HP,yes,0.9090909090909091,-0.5,-0.5,1
10,27,male,Latvian,exp,5,26,exp,yes,242,mixed,f,135,loss,0,344,0.8,20,0.2,30,LP-HP,j,526,HP,win,10_exp_5_26,16,6,HP,yes,0.9090909090909091,0.5,0.5,1
10,27,male,Latvian,exp,5,28,exp,no,214,mixed,j,179,loss,0,568,0.8,20,0.2,30,HP-LP,f,721,HP,no-win,10_exp_5_28,16,6,HP,yes,0.9090909090909091,0.5,-0.5,1
10,27,male,Latvian,exp,5,30,exp,yes,282,mixed,j,245,win,0,487,0.7,10,0.3,50,LP-HP,j,561,HP,win,10_exp_5_30,7,15,LP,no,-0.7272727272727273,-0.5,0.5,1
10,27,male,Latvian,exp,5,32,catch,no,202,mixed,j,170,win,0,559,0.7,30,0.3,10,LP-HP,j,555,HP,win,10_exp_5_32,21,3,HP,yes,1.5,-0.5,-0.5,1
10,27,male,Latvian,exp,5,34,exp,yes,236,mixed,j,164,win,0,664,0.6,40,0.4,50,HP-LP,f,871,HP,win,10_exp_5_34,24,20,HP,yes,0.18181818181818182,-0.5,0.5,1
10,27,male,Latvian,exp,5,36,exp,no,285,mixed,j,210,loss,0,689,0.6,20,0.4,50,HP-LP,j,953,LP,no-win,10_exp_5_36,12,20,LP,yes,-0.5,0.5,-0.5,0
10,27,male,Latvian,exp,5,38,catch,no,292,mixed,f,220,loss,0,345,0.8,50,0.2,30,LP-HP,f,202,LP,win,10_exp_5_38,40,6,HP,no,1.4782608695652173,0.5,-0.5,0
10,27,male,Latvian,exp,5,4,exp,no,287,mixed,j,209,win,0,371,0.6,30,0.4,50,LP-HP,j,861,HP,win,10_exp_5_4,18,20,LP,no,-0.10526315789473684,-0.5,-0.5,1
10,27,male,Latvian,exp,5,40,exp,no,316,mixed,f,160,win,0,303,0.7,20,0.3,30,LP-HP,j,567,HP,no-win,10_exp_5_40,14,9,HP,yes,0.43478260869565216,-0.5,-0.5,1
10,27,male,Latvian,exp,5,42,exp,yes,289,mixed,f,135,win,0,408,0.8,20,0.2,30,LP-HP,j,545,HP,win,10_exp_5_42,16,6,HP,yes,0.9090909090909091,-0.5,0.5,1
10,27,male,Latvian,exp,5,44,exp,no,246,mixed,f,175,win,0,420,0.6,20,0.4,50,LP-HP,j,551,HP,win,10_exp_5_44,12,20,LP,no,-0.5,-0.5,-0.5,1
10,27,male,Latvian,exp,5,46,catch,no,283,mixed,f,148,win,0,418,0.8,40,0.2,20,LP-HP,j,537,HP,no-win,10_exp_5_46,32,4,HP,yes,1.5555555555555556,-0.5,-0.5,1
10,27,male,Latvian,exp,5,48,catch,no,291,mixed,f,154,win,0,395,0.8,50,0.2,30,LP-HP,j,524,HP,no-win,10_exp_5_48,40,6,HP,yes,1.4782608695652173,-0.5,-0.5,1
10,27,male,Latvian,exp,5,50,catch,no,228,mixed,f,170,win,0,353,0.8,50,0.2,30,HP-LP,f,525,HP,win,10_exp_5_50,40,6,HP,yes,1.4782608695652173,-0.5,-0.5,1
10,27,male,Latvian,exp,5,52,exp,no,220,mixed,f,206,win,0,641,0.7,10,0.3,50,HP-LP,j,1017,LP,no-win,10_exp_5_52,7,15,LP,yes,-0.7272727272727273,-0.5,-0.5,0
10,27,male,Latvian,exp,5,6,exp,no,278,mixed,j,210,win,0,232,0.8,10,0.2,20,HP-LP,j,370,LP,no-win,10_exp_5_6,8,4,HP,no,0.6666666666666666,-0.5,-0.5,0
10,27,male,Latvian,exp,5,8,exp,no,222,mixed,j,159,loss,0,402,0.7,10,0.3,50,LP-HP,f,1438,LP,no-win,10_exp_5_8,7,15,LP,yes,-0.7272727272727273,0.5,-0.5,0
10,27,male,Latvian,exp,6,10,exp,no,276,mixed,f,215,win,0,315,0.6,20,0.4,50,HP-LP,j,1017,LP,win,10_exp_6_10,12,20,LP,yes,-0.5,-0.5,-0.5,0
10,27,male,Latvian,exp,6,12,exp,yes,229,mixed,f,159,loss,0,656,0.6,20,0.4,50,HP-LP,j,756,LP,no-win,10_exp_6_12,12,20,LP,yes,-0.5,0.5,0.5,0
10,27,male,Latvian,exp,6,14,exp,no,303,mixed,j,190,loss,0,718,0.8,10,0.2,20,HP-LP,f,1100,HP,win,10_exp_6_14,8,4,HP,yes,0.6666666666666666,0.5,-0.5,1
10,27,male,Latvian,exp,6,16,exp,yes,249,mixed,j,160,loss,0,277,0.8,10,0.2,20,LP-HP,j,791,HP,no-win,10_exp_6_16,8,4,HP,yes,0.6666666666666666,0.5,0.5,1
10,27,male,Latvian,exp,6,18,exp,yes,313,mixed,j,201,win,0,468,0.8,20,0.2,30,HP-LP,f,536,HP,win,10_exp_6_18,16,6,HP,yes,0.9090909090909091,-0.5,0.5,1
10,27,male,Latvian,exp,6,2,exp,no,950,mixed,j,889,win,0,390,0.6,30,0.4,50,HP-LP,f,856,HP,win,10_exp_6_2,18,20,LP,no,-0.10526315789473684,-0.5,-0.5,1
10,27,male,Latvian,exp,6,20,exp,no,150,mixed,j,194,loss,0,415,0.8,20,0.2,30,LP-HP,j,592,HP,win,10_exp_6_20,16,6,HP,yes,0.9090909090909091,0.5,-0.5,1
10,27,male,Latvian,exp,6,22,exp,yes,409,mixed,f,226,loss,0,882,0.7,20,0.3,30,HP-LP,f,836,HP,no-win,10_exp_6_22,14,9,HP,yes,0.43478260869565216,0.5,0.5,1
10,27,male,Latvian,exp,6,24,exp,no,289,mixed,f,184,loss,0,643,0.6,20,0.4,50,LP-HP,j,561,HP,win,10_exp_6_24,12,20,LP,no,-0.5,0.5,-0.5,1
10,27,male,Latvian,exp,6,26,exp,yes,195,mixed,f,150,win,0,324,0.6,20,0.4,50,LP-HP,f,892,LP,win,10_exp_6_26,12,20,LP,yes,-0.5,-0.5,0.5,0
10,27,male,Latvian,exp,6,28,exp,yes,241,mixed,f,164,loss,0,314,0.6,30,0.4,50,LP-HP,j,784,HP,win,10_exp_6_28,18,20,LP,no,-0.10526315789473684,0.5,0.5,1
10,27,male,Latvian,exp,6,30,exp,yes,161,mixed,j,144,loss,0,302,0.6,40,0.4,50,HP-LP,j,877,LP,no-win,10_exp_6_30,24,20,HP,no,0.18181818181818182,0.5,0.5,0
10,27,male,Latvian,exp,6,32,exp,yes,214,mixed,j,129,win,0,463,0.7,10,0.3,50,HP-LP,f,1122,HP,win,10_exp_6_32,7,15,LP,no,-0.7272727272727273,-0.5,0.5,1
10,27,male,Latvian,exp,6,34,catch,no,291,mixed,j,270,win,0,477,0.7,10,0.6,50,HP-LP,j,967,LP,win,10_exp_6_34,7,30,LP,yes,-1.2432432432432432,-0.5,-0.5,0
10,27,male,Latvian,exp,6,36,catch,no,229,mixed,j,175,win,0,460,0.8,10,0.7,50,LP-HP,f,1097,LP,win,10_exp_6_36,8,35,LP,yes,-1.255813953488372,-0.5,-0.5,0
10,27,male,Latvian,exp,6,38,exp,yes,660,mixed,j,200,loss,0,437,0.6,40,0.4,50,LP-HP,f,836,LP,win,10_exp_6_38,24,20,HP,no,0.18181818181818182,0.5,0.5,0
10,27,male,Latvian,exp,6,4,exp,yes,174,mixed,j,190,loss,0,431,0.7,10,0.3,50,HP-LP,j,1243,LP,win,10_exp_6_4,7,15,LP,yes,-0.7272727272727273,0.5,0.5,0
10,27,male,Latvian,exp,6,40,catch,no,216,mixed,f,149,loss,0,2324,0.6,10,0.5,50,HP-LP,j,695,LP,no-win,10_exp_6_40,6,25,LP,yes,-1.2258064516129032,0.5,-0.5,0
10,27,male,Latvian,exp,6,42,exp,yes,237,mixed,f,150,loss,0,394,0.8,10,0.2,20,HP-LP,f,691,HP,win,10_exp_6_42,8,4,HP,yes,0.6666666666666666,0.5,0.5,1
10,27,male,Latvian,exp,6,44,catch,no,125,mixed,f,140,loss,0,645,0.7,30,0.3,10,HP-LP,f,1032,HP,win,10_exp_6_44,21,3,HP,yes,1.5,0.5,-0.5,1
10,27,male,Latvian,exp,6,46,catch,no,312,mixed,f,156,win,0,599,0.7,30,0.3,10,HP-LP,f,706,HP,no-win,10_exp_6_46,21,3,HP,yes,1.5,-0.5,-0.5,1
10,27,male,Latvian,exp,6,48,exp,yes,250,mixed,f,150,loss,0,356,0.8,20,0.2,30,HP-LP,f,541,HP,win,10_exp_6_48,16,6,HP,yes,0.9090909090909091,0.5,0.5,1
10,27,male,Latvian,exp,6,50,catch,no,251,mixed,j,217,win,0,473,0.7,10,0.6,50,LP-HP,f,671,LP,no-win,10_exp_6_50,7,30,LP,yes,-1.2432432432432432,-0.5,-0.5,0
10,27,male,Latvian,exp,6,52,exp,yes,437,mixed,j,290,win,0,764,0.7,20,0.3,30,LP-HP,j,827,HP,win,10_exp_6_52,14,9,HP,yes,0.43478260869565216,-0.5,0.5,1
10,27,male,Latvian,exp,6,6,exp,no,218,mixed,f,195,loss,0,405,0.6,30,0.4,50,LP-HP,j,720,HP,win,10_exp_6_6,18,20,LP,no,-0.10526315789473684,0.5,-0.5,1
10,27,male,Latvian,exp,6,8,exp,no,214,mixed,f,127,win,0,417,0.7,30,0.3,40,HP-LP,f,616,HP,win,10_exp_6_8,21,12,HP,yes,0.5454545454545454,-0.5,-0.5,1
11,27,male,portuguese,exp,3,10,exp,yes,597,mixed,j,612,loss,0,554,0.8,10,0.2,20,HP-LP,f,1167,HP,win,11_exp_3_10,8,4,HP,yes,0.6666666666666666,0.5,0.5,1
11,27,male,portuguese,exp,3,12,exp,yes,316,mixed,j,564,win,0,854,0.6,10,0.4,40,HP-LP,j,1636,LP,win,11_exp_3_12,6,16,LP,yes,-0.9090909090909091,-0.5,0.5,0
11,27,male,portuguese,exp,3,14,catch,no,137,mixed,j,460,loss,0,366,0.6,10,0.5,50,LP-HP,f,1465,LP,no-win,11_exp_3_14,6,25,LP,yes,-1.2258064516129032,0.5,-0.5,0
11,27,male,portuguese,exp,3,16,exp,yes,389,mixed,j,620,loss,0,436,0.7,20,0.3,30,HP-LP,f,2272,HP,win,11_exp_3_16,14,9,HP,yes,0.43478260869565216,0.5,0.5,1
11,27,male,portuguese,exp,3,18,exp,no,357,mixed,j,339,win,0,260,0.7,20,0.3,30,LP-HP,j,1263,HP,no-win,11_exp_3_18,14,9,HP,yes,0.43478260869565216,-0.5,-0.5,1
11,27,male,portuguese,exp,3,2,exp,yes,1292,mixed,j,895,loss,1,804,0.8,10,0.2,20,LP-HP,j,1559,HP,win,11_exp_3_2,8,4,HP,yes,0.6666666666666666,0.5,0.5,1
11,27,male,portuguese,exp,3,20,exp,yes,997,mixed,j,560,loss,0,1734,0.7,30,0.3,40,HP-LP,f,1256,HP,win,11_exp_3_20,21,12,HP,yes,0.5454545454545454,0.5,0.5,1
11,27,male,portuguese,exp,3,22,exp,yes,551,mixed,j,632,loss,0,1475,0.8,20,0.2,30,LP-HP,j,1156,HP,win,11_exp_3_22,16,6,HP,yes,0.9090909090909091,0.5,0.5,1
11,27,male,portuguese,exp,3,24,exp,yes,411,mixed,j,557,loss,1,552,0.7,10,0.3,50,HP-LP,j,1393,LP,no-win,11_exp_3_24,7,15,LP,yes,-0.7272727272727273,0.5,0.5,0
11,27,male,portuguese,exp,3,26,exp,no,997,mixed,f,431,win,0,567,0.7,10,0.3,50,LP-HP,f,1320,LP,no-win,11_exp_3_26,7,15,LP,yes,-0.7272727272727273,-0.5,-0.5,0
11,27,male,portuguese,exp,3,28,catch,no,575,mixed,f,637,loss,0,290,0.8,40,0.2,20,LP-HP,j,812,HP,no-win,11_exp_3_28,32,4,HP,yes,1.5555555555555556,0.5,-0.5,1
11,27,male,portuguese,exp,3,30,exp,yes,808,mixed,f,168,win,1,494,0.8,20,0.2,30,LP-HP,j,849,HP,win,11_exp_3_30,16,6,HP,yes,0.9090909090909091,-0.5,0.5,1
11,27,male,portuguese,exp,3,32,exp,no,409,mixed,f,291,win,0,394,0.7,20,0.3,30,HP-LP,f,892,HP,win,11_exp_3_32,14,9,HP,yes,0.43478260869565216,-0.5,-0.5,1
11,27,male,portuguese,exp,3,34,exp,no,226,mixed,f,629,loss,0,344,0.7,20,0.3,30,HP-LP,f,999,HP,win,11_exp_3_34,14,9,HP,yes,0.43478260869565216,0.5,-0.5,1
11,27,male,portuguese,exp,3,36,catch,no,375,mixed,f,580,loss,0,407,0.7,10,0.6,50,HP-LP,j,1172,LP,no-win,11_exp_3_36,7,30,LP,yes,-1.2432432432432432,0.5,-0.5,0
11,27,male,portuguese,exp,3,38,exp,yes,795,mixed,f,955,win,0,597,0.8,10,0.2,20,HP-LP,f,839,HP,win,11_exp_3_38,8,4,HP,yes,0.6666666666666666,-0.5,0.5,1
11,27,male,portuguese,exp,3,4,exp,no,602,mixed,j,1103,loss,0,1647,0.6,10,0.4,40,LP-HP,f,1272,LP,win,11_exp_3_4,6,16,LP,yes,-0.9090909090909091,0.5,-0.5,0
11,27,male,portuguese,exp,3,40,catch,no,1210,mixed,f,564,win,0,358,0.7,10,0.6,50,HP-LP,j,684,LP,win,11_exp_3_40,7,30,LP,yes,-1.2432432432432432,-0.5,-0.5,0
11,27,male,portuguese,exp,3,42,exp,yes,285,mixed,f,416,win,1,520,0.7,10,0.3,50,HP-LP,j,1113,LP,win,11_exp_3_42,7,15,LP,yes,-0.7272727272727273,-0.5,0.5,0
11,27,male,portuguese,exp,3,44,exp,no,4685,mixed,f,527,loss,0,736,0.7,10,0.3,50,LP-HP,f,1140,LP,win,11_exp_3_44,7,15,LP,yes,-0.7272727272727273,0.5,-0.5,0
11,27,male,portuguese,exp,3,46,exp,no,1042,mixed,f,567,loss,0,636,0.8,20,0.2,30,LP-HP,j,944,HP,no-win,11_exp_3_46,16,6,HP,yes,0.9090909090909091,0.5,-0.5,1
11,27,male,portuguese,exp,3,48,catch,no,532,mixed,f,536,loss,0,753,0.7,10,0.6,50,LP-HP,f,740,LP,win,11_exp_3_48,7,30,LP,yes,-1.2432432432432432,0.5,-0.5,0
11,27,male,portuguese,exp,3,50,catch,no,354,mixed,f,552,loss,0,275,0.7,30,0.3,10,LP-HP,j,956,HP,win,11_exp_3_50,21,3,HP,yes,1.5,0.5,-0.5,1
11,27,male,portuguese,exp,3,52,exp,yes,312,mixed,f,565,loss,1,680,0.7,30,0.3,40,LP-HP,j,1236,HP,win,11_exp_3_52,21,12,HP,yes,0.5454545454545454,0.5,0.5,1
11,27,male,portuguese,exp,3,6,exp,no,782,mixed,j,715,win,0,528,0.6,30,0.4,50,LP-HP,j,6127,HP,win,11_exp_3_6,18,20,LP,no,-0.10526315789473684,-0.5,-0.5,1
11,27,male,portuguese,exp,3,8,exp,no,1870,mixed,j,583,win,0,364,0.6,40,0.4,50,HP-LP,f,2210,HP,no-win,11_exp_3_8,24,20,HP,yes,0.18181818181818182,-0.5,-0.5,1
11,27,male,portuguese,exp,4,10,exp,no,363,mixed,f,600,loss,0,789,0.7,10,0.3,50,HP-LP,j,1231,LP,no-win,11_exp_4_10,7,15,LP,yes,-0.7272727272727273,0.5,-0.5,0
11,27,male,portuguese,exp,4,12,exp,yes,500,mixed,f,676,win,1,624,0.8,10,0.2,20,LP-HP,j,1131,HP,win,11_exp_4_12,8,4,HP,yes,0.6666666666666666,-0.5,0.5,1
11,27,male,portuguese,exp,4,14,exp,yes,922,mixed,f,459,win,1,599,0.8,20,0.2,30,HP-LP,f,952,HP,win,11_exp_4_14,16,6,HP,yes,0.9090909090909091,-0.5,0.5,1
11,27,male,portuguese,exp,4,16,exp,yes,218,mixed,f,591,win,0,515,0.7,10,0.3,50,LP-HP,f,907,LP,win,11_exp_4_16,7,15,LP,yes,-0.7272727272727273,-0.5,0.5,0
11,27,male,portuguese,exp,4,18,exp,no,2034,mixed,f,667,win,0,1359,0.6,20,0.4,50,LP-HP,f,1307,LP,win,11_exp_4_18,12,20,LP,yes,-0.5,-0.5,-0.5,0
11,27,male,portuguese,exp,4,2,exp,no,679,mixed,j,849,loss,0,116,0.6,10,0.4,40,HP-LP,j,1177,LP,no-win,11_exp_4_2,6,16,LP,yes,-0.9090909090909091,0.5,-0.5,0
11,27,male,portuguese,exp,4,20,exp,yes,441,mixed,f,604,loss,1,48,0.7,10,0.3,50,LP-HP,f,864,LP,no-win,11_exp_4_20,7,15,LP,yes,-0.7272727272727273,0.5,0.5,0
11,27,male,portuguese,exp,4,22,exp,no,430,mixed,f,644,win,0,7034,0.8,20,0.2,30,LP-HP,j,1067,HP,win,11_exp_4_22,16,6,HP,yes,0.9090909090909091,-0.5,-0.5,1
11,27,male,portuguese,exp,4,24,catch,no,451,mixed,f,564,win,0,774,0.8,50,0.2,30,LP-HP,j,1253,HP,win,11_exp_4_24,40,6,HP,yes,1.4782608695652173,-0.5,-0.5,1
11,27,male,portuguese,exp,4,26,exp,no,399,mixed,f,736,loss,0,363,0.6,20,0.4,50,HP-LP,j,1772,LP,win,11_exp_4_26,12,20,LP,yes,-0.5,0.5,-0.5,0
11,27,male,portuguese,exp,4,28,catch,no,727,mixed,f,600,win,0,440,0.8,40,0.2,20,LP-HP,j,636,HP,win,11_exp_4_28,32,4,HP,yes,1.5555555555555556,-0.5,-0.5,1
11,27,male,portuguese,exp,4,30,catch,no,1313,mixed,f,500,loss,0,499,0.8,10,0.7,50,LP-HP,f,827,LP,win,11_exp_4_30,8,35,LP,yes,-1.255813953488372,0.5,-0.5,0
11,27,male,portuguese,exp,4,32,exp,yes,392,mixed,j,959,loss,1,590,0.6,30,0.4,50,LP-HP,f,1307,LP,no-win,11_exp_4_32,18,20,LP,yes,-0.10526315789473684,0.5,0.5,0
11,27,male,portuguese,exp,4,34,exp,no,556,mixed,j,712,loss,0,506,0.8,10,0.2,20,LP-HP,j,1400,HP,win,11_exp_4_34,8,4,HP,yes,0.6666666666666666,0.5,-0.5,1
11,27,male,portuguese,exp,4,36,exp,yes,442,mixed,f,492,win,0,393,0.6,20,0.4,50,LP-HP,f,1179,LP,win,11_exp_4_36,12,20,LP,yes,-0.5,-0.5,0.5,0
11,27,male,portuguese,exp,4,38,exp,no,273,mixed,f,475,loss,0,449,0.7,30,0.3,40,LP-HP,j,1201,HP,win,11_exp_4_38,21,12,HP,yes,0.5454545454545454,0.5,-0.5,1
11,27,male,portuguese,exp,4,4,exp,no,249,mixed,f,312,win,0,401,0.7,30,0.3,40,LP-HP,j,1095,HP,win,11_exp_4_4,21,12,HP,yes,0.5454545454545454,-0.5,-0.5,1
11,27,male,portuguese,exp,4,40,catch,no,935,mixed,f,312,win,0,1691,0.8,10,0.7,50,HP-LP,j,759,LP,win,11_exp_4_40,8,35,LP,yes,-1.255813953488372,-0.5,-0.5,0
11,27,male,portuguese,exp,4,42,exp,no,334,mixed,f,380,loss,0,55,0.7,10,0.3,30,LP-HP,f,1360,LP,no-win,11_exp_4_42,7,9,LP,yes,-0.25,0.5,-0.5,0
11,27,male,portuguese,exp,4,44,exp,no,297,mixed,f,271,win,0,326,0.6,30,0.4,50,HP-LP,j,771,LP,win,11_exp_4_44,18,20,LP,yes,-0.10526315789473684,-0.5,-0.5,0
11,27,male,portuguese,exp,4,46,exp,no,224,mixed,f,160,loss,0,520,0.7,20,0.3,30,LP-HP,j,1595,HP,win,11_exp_4_46,14,9,HP,yes,0.43478260869565216,0.5,-0.5,1
11,27,male,portuguese,exp,4,48,catch,no,313,mixed,f,547,loss,0,508,0.6,10,0.5,50,HP-LP,j,588,LP,win,11_exp_4_48,6,25,LP,yes,-1.2258064516129032,0.5,-0.5,0
11,27,male,portuguese,exp,4,50,catch,no,358,mixed,f,584,loss,0,538,0.8,40,0.2,20,HP-LP,f,595,HP,win,11_exp_4_50,32,4,HP,yes,1.5555555555555556,0.5,-0.5,1
11,27,male,portuguese,exp,4,52,exp,no,304,mixed,f,572,loss,0,301,0.6,20,0.4,50,LP-HP,f,688,LP,win,11_exp_4_52,12,20,LP,yes,-0.5,0.5,-0.5,0
11,27,male,portuguese,exp,4,6,exp,yes,327,mixed,f,640,win,0,632,0.7,30,0.3,40,HP-LP,f,844,HP,win,11_exp_4_6,21,12,HP,yes,0.5454545454545454,-0.5,0.5,1
11,27,male,portuguese,exp,4,8,exp,yes,472,mixed,f,560,loss,1,763,0.6,30,0.4,50,HP-LP,j,2308,LP,win,11_exp_4_8,18,20,LP,yes,-0.10526315789473684,0.5,0.5,0
11,27,male,portuguese,exp,5,10,exp,no,636,mixed,f,1089,win,0,542,0.8,10,0.2,20,LP-HP,j,887,HP,win,11_exp_5_10,8,4,HP,yes,0.6666666666666666,-0.5,-0.5,1
11,27,male,portuguese,exp,5,12,exp,no,590,mixed,f,600,win,0,543,0.7,10,0.3,30,HP-LP,j,2248,LP,no-win,11_exp_5_12,7,9,LP,yes,-0.25,-0.5,-0.5,0
11,27,male,portuguese,exp,5,14,exp,no,442,mixed,f,461,win,0,381,0.8,10,0.2,20,HP-LP,f,1007,HP,win,11_exp_5_14,8,4,HP,yes,0.6666666666666666,-0.5,-0.5,1
11,27,male,portuguese,exp,5,16,catch,no,351,mixed,f,547,win,0,567,0.7,10,0.6,50,LP-HP,f,667,LP,win,11_exp_5_16,7,30,LP,yes,-1.2432432432432432,-0.5,-0.5,0
11,27,male,portuguese,exp,5,18,exp,yes,426,mixed,f,488,loss,2,569,0.7,10,0.3,30,LP-HP,f,1303,LP,no-win,11_exp_5_18,7,9,LP,yes,-0.25,0.5,0.5,0
11,27,male,portuguese,exp,5,2,exp,no,767,mixed,f,1285,win,0,608,0.7,10,0.3,50,HP-LP,j,968,LP,no-win,11_exp_5_2,7,15,LP,yes,-0.7272727272727273,-0.5,-0.5,0
11,27,male,portuguese,exp,5,20,catch,no,461,mixed,f,612,win,0,397,0.8,10,0.7,50,LP-HP,f,837,LP,win,11_exp_5_20,8,35,LP,yes,-1.255813953488372,-0.5,-0.5,0
11,27,male,portuguese,exp,5,22,catch,no,283,mixed,f,480,win,0,384,0.8,50,0.2,30,HP-LP,f,1159,HP,win,11_exp_5_22,40,6,HP,yes,1.4782608695652173,-0.5,-0.5,1
11,27,male,portuguese,exp,5,24,exp,yes,222,mixed,f,532,win,1,908,0.7,20,0.3,30,LP-HP,f,1396,LP,no-win,11_exp_5_24,14,9,HP,no,0.43478260869565216,-0.5,0.5,0
11,27,male,portuguese,exp,5,26,exp,no,429,mixed,f,1127,win,0,416,0.6,20,0.4,50,HP-LP,j,1167,LP,no-win,11_exp_5_26,12,20,LP,yes,-0.5,-0.5,-0.5,0
11,27,male,portuguese,exp,5,28,exp,yes,494,mixed,j,1180,loss,1,538,0.6,40,0.4,50,HP-LP,f,1096,HP,no-win,11_exp_5_28,24,20,HP,yes,0.18181818181818182,0.5,0.5,1
11,27,male,portuguese,exp,5,30,exp,no,354,mixed,j,352,loss,0,180,0.6,40,0.4,50,LP-HP,j,1176,HP,win,11_exp_5_30,24,20,HP,yes,0.18181818181818182,0.5,-0.5,1
11,27,male,portuguese,exp,5,32,exp,yes,362,mixed,j,124,win,1,607,0.6,40,0.4,50,LP-HP,j,815,HP,win,11_exp_5_32,24,20,HP,yes,0.18181818181818182,-0.5,0.5,1
11,27,male,portuguese,exp,5,34,exp,yes,326,mixed,j,784,win,1,748,0.7,10,0.3,30,HP-LP,j,1015,LP,no-win,11_exp_5_34,7,9,LP,yes,-0.25,-0.5,0.5,0
11,27,male,portuguese,exp,5,36,catch,no,404,mixed,j,773,loss,0,256,0.7,30,0.3,10,HP-LP,f,647,HP,win,11_exp_5_36,21,3,HP,yes,1.5,0.5,-0.5,1
11,27,male,portuguese,exp,5,38,exp,yes,349,mixed,j,588,loss,2,423,0.6,20,0.4,50,HP-LP,j,768,LP,no-win,11_exp_5_38,12,20,LP,yes,-0.5,0.5,0.5,0
11,27,male,portuguese,exp,5,4,exp,yes,492,mixed,f,600,win,1,325,0.7,10,0.3,30,LP-HP,f,1004,LP,no-win,11_exp_5_4,7,9,LP,yes,-0.25,-0.5,0.5,0
11,27,male,portuguese,exp,5,40,catch,no,527,mixed,j,552,win,0,50,0.6,10,0.5,50,HP-LP,j,556,LP,no-win,11_exp_5_40,6,25,LP,yes,-1.2258064516129032,-0.5,-0.5,0
11,27,male,portuguese,exp,5,42,exp,yes,398,mixed,j,564,win,1,572,0.7,30,0.3,40,LP-HP,j,1515,HP,no-win,11_exp_5_42,21,12,HP,yes,0.5454545454545454,-0.5,0.5,1
11,27,male,portuguese,exp,5,44,exp,no,586,mixed,j,648,loss,0,694,0.8,20,0.2,30,HP-LP,f,1052,HP,win,11_exp_5_44,16,6,HP,yes,0.9090909090909091,0.5,-0.5,1
11,27,male,portuguese,exp,5,46,exp,yes,507,mixed,j,1604,loss,1,668,0.6,10,0.4,40,HP-LP,j,987,LP,no-win,11_exp_5_46,6,16,LP,yes,-0.9090909090909091,0.5,0.5,0
11,27,male,portuguese,exp,5,48,exp,yes,5095,mixed,j,580,loss,1,578,0.7,20,0.3,30,LP-HP,j,1416,HP,win,11_exp_5_48,14,9,HP,yes,0.43478260869565216,0.5,0.5,1
11,27,male,portuguese,exp,5,50,catch,no,791,mixed,j,591,win,0,412,0.7,30,0.3,10,HP-LP,f,655,HP,no-win,11_exp_5_50,21,3,HP,yes,1.5,-0.5,-0.5,1
11,27,male,portuguese,exp,5,52,exp,yes,476,mixed,j,556,win,1,560,0.6,30,0.4,50,LP-HP,f,1656,LP,no-win,11_exp_5_52,18,20,LP,yes,-0.10526315789473684,-0.5,0.5,0
11,27,male,portuguese,exp,5,6,exp,no,1153,mixed,f,699,loss,0,877,0.8,10,0.2,20,HP-LP,f,1095,HP,win,11_exp_5_6,8,4,HP,yes,0.6666666666666666,0.5,-0.5,1
11,27,male,portuguese,exp,5,8,exp,no,486,mixed,f,553,win,0,395,0.6,10,0.4,40,HP-LP,j,713,LP,no-win,11_exp_5_8,6,16,LP,yes,-0.9090909090909091,-0.5,-0.5,0
11,27,male,portuguese,exp,6,10,catch,no,344,mixed,f,164,win,0,313,0.8,40,0.2,20,HP-LP,f,663,HP,no-win,11_exp_6_10,32,4,HP,yes,1.5555555555555556,-0.5,-0.5,1
11,27,male,portuguese,exp,6,12,exp,yes,394,mixed,f,1092,win,1,1536,0.6,20,0.4,50,HP-LP,j,935,LP,no-win,11_exp_6_12,12,20,LP,yes,-0.5,-0.5,0.5,0
11,27,male,portuguese,exp,6,14,catch,no,914,mixed,f,720,loss,0,594,0.8,50,0.2,30,HP-LP,f,812,HP,win,11_exp_6_14,40,6,HP,yes,1.4782608695652173,0.5,-0.5,1
11,27,male,portuguese,exp,6,16,exp,yes,423,mixed,f,988,loss,1,455,0.7,10,0.3,30,HP-LP,j,1040,LP,no-win,11_exp_6_16,7,9,LP,yes,-0.25,0.5,0.5,0
11,27,male,portuguese,exp,6,18,exp,no,378,mixed,f,407,win,0,201,0.7,30,0.3,40,HP-LP,f,996,HP,no-win,11_exp_6_18,21,12,HP,yes,0.5454545454545454,-0.5,-0.5,1
11,27,male,portuguese,exp,6,2,catch,no,603,mixed,f,973,win,0,378,0.7,30,0.3,10,LP-HP,j,900,HP,win,11_exp_6_2,21,3,HP,yes,1.5,-0.5,-0.5,1
11,27,male,portuguese,exp,6,20,exp,no,452,mixed,f,548,loss,0,274,0.6,30,0.4,50,LP-HP,f,1244,LP,win,11_exp_6_20,18,20,LP,yes,-0.10526315789473684,0.5,-0.5,0
11,27,male,portuguese,exp,6,22,exp,yes,344,mixed,f,501,win,1,541,0.6,10,0.4,40,LP-HP,f,828,LP,no-win,11_exp_6_22,6,16,LP,yes,-0.9090909090909091,-0.5,0.5,0
11,27,male,portuguese,exp,6,24,exp,no,404,mixed,f,660,loss,0,432,0.7,10,0.3,30,HP-LP,j,720,LP,no-win,11_exp_6_24,7,9,LP,yes,-0.25,0.5,-0.5,0
11,27,male,portuguese,exp,6,26,exp,yes,469,mixed,f,927,win,1,510,0.6,40,0.4,50,HP-LP,f,1200,HP,no-win,11_exp_6_26,24,20,HP,yes,0.18181818181818182,-0.5,0.5,1
11,27,male,portuguese,exp,6,28,catch,no,856,mixed,f,132,loss,0,1511,0.8,10,0.7,50,HP-LP,j,656,LP,win,11_exp_6_28,8,35,LP,yes,-1.255813953488372,0.5,-0.5,0
11,27,male,portuguese,exp,6,30,exp,yes,172,mixed,j,372,loss,2,284,0.6,40,0.4,50,LP-HP,j,1647,HP,win,11_exp_6_30,24,20,HP,yes,0.18181818181818182,0.5,0.5,1
11,27,male,portuguese,exp,6,32,exp,yes,270,mixed,j,153,win,0,69,0.6,30,0.4,50,HP-LP,j,1031,LP,win,11_exp_6_32,18,20,LP,yes,-0.10526315789473684,-0.5,0.5,0
11,27,male,portuguese,exp,6,34,exp,yes,319,mixed,j,708,win,1,533,0.7,20,0.3,30,HP-LP,f,971,HP,win,11_exp_6_34,14,9,HP,yes,0.43478260869565216,-0.5,0.5,1
11,27,male,portuguese,exp,6,36,exp,no,557,mixed,j,727,win,0,254,0.6,40,0.4,50,LP-HP,f,1400,LP,no-win,11_exp_6_36,24,20,HP,no,0.18181818181818182,-0.5,-0.5,0
11,27,male,portuguese,exp,6,38,exp,yes,292,mixed,j,544,loss,2,404,0.6,20,0.4,50,LP-HP,f,1133,LP,no-win,11_exp_6_38,12,20,LP,yes,-0.5,0.5,0.5,0
11,27,male,portuguese,exp,6,4,catch,no,463,mixed,f,492,win,0,589,0.6,10,0.5,50,LP-HP,f,688,LP,no-win,11_exp_6_4,6,25,LP,yes,-1.2258064516129032,-0.5,-0.5,0
11,27,male,portuguese,exp,6,40,exp,no,32,mixed,j,557,loss,0,242,0.6,40,0.4,50,HP-LP,f,2123,HP,win,11_exp_6_40,24,20,HP,yes,0.18181818181818182,0.5,-0.5,1
11,27,male,portuguese,exp,6,42,exp,no,124,mixed,j,104,win,0,301,0.8,20,0.2,30,HP-LP,f,999,HP,win,11_exp_6_42,16,6,HP,yes,0.9090909090909091,-0.5,-0.5,1
11,27,male,portuguese,exp,6,44,exp,no,410,mixed,j,108,loss,0,1611,0.7,30,0.3,40,HP-LP,f,915,HP,win,11_exp_6_44,21,12,HP,yes,0.5454545454545454,0.5,-0.5,1
11,27,male,portuguese,exp,6,46,exp,no,609,mixed,j,1417,win,0,382,0.6,10,0.4,40,LP-HP,f,797,LP,no-win,11_exp_6_46,6,16,LP,yes,-0.9090909090909091,-0.5,-0.5,0
11,27,male,portuguese,exp,6,48,exp,yes,375,mixed,j,632,loss,1,382,0.6,10,0.4,40,LP-HP,f,799,LP,win,11_exp_6_48,6,16,LP,yes,-0.9090909090909091,0.5,0.5,0
11,27,male,portuguese,exp,6,50,exp,no,408,mixed,j,601,win,0,261,0.7,10,0.3,30,LP-HP,f,1665,LP,no-win,11_exp_6_50,7,9,LP,yes,-0.25,-0.5,-0.5,0
11,27,male,portuguese,exp,6,52,exp,yes,294,mixed,j,440,loss,0,332,0.8,20,0.2,30,HP-LP,f,836,HP,win,11_exp_6_52,16,6,HP,yes,0.9090909090909091,0.5,0.5,1
11,27,male,portuguese,exp,6,6,exp,no,380,mixed,f,747,loss,0,422,0.6,30,0.4,50,HP-LP,j,1284,LP,no-win,11_exp_6_6,18,20,LP,yes,-0.10526315789473684,0.5,-0.5,0
11,27,male,portuguese,exp,6,8,catch,no,464,mixed,f,932,loss,0,636,0.8,50,0.2,30,LP-HP,j,739,HP,win,11_exp_6_8,40,6,HP,yes,1.4782608695652173,0.5,-0.5,1
12,30,female,Slovakian,exp,3,10,exp,yes,691,mixed,f,602,win,0,1003,0.7,20,0.3,30,LP-HP,j,598,HP,no-win,12_exp_3_10,14,9,HP,yes,0.43478260869565216,-0.5,0.5,1
12,30,female,Slovakian,exp,3,12,exp,no,721,mixed,j,519,loss,0,633,0.8,20,0.2,30,LP-HP,j,695,HP,no-win,12_exp_3_12,16,6,HP,yes,0.9090909090909091,0.5,-0.5,1
12,30,female,Slovakian,exp,3,14,exp,no,348,mixed,j,664,win,0,480,0.6,10,0.4,40,HP-LP,f,441,HP,no-win,12_exp_3_14,6,16,LP,no,-0.9090909090909091,-0.5,-0.5,1
12,30,female,Slovakian,exp,3,16,catch,no,56,mixed,j,697,win,0,337,0.8,10,0.7,50,HP-LP,j,622,LP,win,12_exp_3_16,8,35,LP,yes,-1.255813953488372,-0.5,-0.5,0
12,30,female,Slovakian,exp,3,18,exp,no,478,mixed,j,548,win,0,388,0.7,20,0.3,30,HP-LP,f,776,HP,win,12_exp_3_18,14,9,HP,yes,0.43478260869565216,-0.5,-0.5,1
12,30,female,Slovakian,exp,3,2,exp,no,3822,mixed,j,705,loss,0,1565,0.8,10,0.2,20,HP-LP,f,692,HP,win,12_exp_3_2,8,4,HP,yes,0.6666666666666666,0.5,-0.5,1
12,30,female,Slovakian,exp,3,20,exp,no,310,mixed,j,479,win,0,363,0.6,40,0.4,50,LP-HP,j,468,HP,no-win,12_exp_3_20,24,20,HP,yes,0.18181818181818182,-0.5,-0.5,1
12,30,female,Slovakian,exp,3,22,catch,no,380,mixed,j,389,loss,0,233,0.8,40,0.2,20,HP-LP,f,526,HP,win,12_exp_3_22,32,4,HP,yes,1.5555555555555556,0.5,-0.5,1
12,30,female,Slovakian,exp,3,24,exp,yes,375,mixed,j,534,win,1,626,0.6,20,0.4,50,LP-HP,j,949,HP,win,12_exp_3_24,12,20,LP,no,-0.5,-0.5,0.5,1
12,30,female,Slovakian,exp,3,26,exp,yes,379,mixed,j,553,loss,2,33,0.6,10,0.4,40,LP-HP,j,1390,HP,win,12_exp_3_26,6,16,LP,no,-0.9090909090909091,0.5,0.5,1
12,30,female,Slovakian,exp,3,28,exp,no,429,mixed,j,532,win,0,450,0.7,30,0.3,40,LP-HP,j,808,HP,win,12_exp_3_28,21,12,HP,yes,0.5454545454545454,-0.5,-0.5,1
12,30,female,Slovakian,exp,3,30,exp,no,507,mixed,j,483,win,0,421,0.6,30,0.4,50,LP-HP,j,830,HP,no-win,12_exp_3_30,18,20,LP,no,-0.10526315789473684,-0.5,-0.5,1
12,30,female,Slovakian,exp,3,32,exp,yes,53,mixed,j,609,win,0,1015,0.6,40,0.4,50,LP-HP,j,606,HP,win,12_exp_3_32,24,20,HP,yes,0.18181818181818182,-0.5,0.5,1
12,30,female,Slovakian,exp,3,34,exp,yes,405,mixed,j,546,loss,3,548,0.7,30,0.3,40,HP-LP,f,885,HP,win,12_exp_3_34,21,12,HP,yes,0.5454545454545454,0.5,0.5,1
12,30,female,Slovakian,exp,3,36,exp,no,514,mixed,j,511,win,0,230,0.8,20,0.2,30,LP-HP,j,502,HP,win,12_exp_3_36,16,6,HP,yes,0.9090909090909091,-0.5,-0.5,1
12,30,female,Slovakian,exp,3,38,exp,yes,390,mixed,j,440,win,1,676,0.7,10,0.3,50,HP-LP,f,811,HP,no-win,12_exp_3_38,7,15,LP,no,-0.7272727272727273,-0.5,0.5,1
12,30,female,Slovakian,exp,3,4,exp,yes,1271,mixed,f,881,loss,1,1265,0.7,20,0.3,30,LP-HP,j,821,HP,no-win,12_exp_3_4,14,9,HP,yes,0.43478260869565216,0.5,0.5,1
12,30,female,Slovakian,exp,3,40,exp,no,588,mixed,j,559,win,0,516,0.8,10,0.2,20,HP-LP,j,1696,LP,no-win,12_exp_3_40,8,4,HP,no,0.6666666666666666,-0.5,-0.5,0
12,30,female,Slovakian,exp,3,42,catch,no,553,mixed,j,494,loss,0,513,0.7,10,0.6,50,HP-LP,j,1358,LP,win,12_exp_3_42,7,30,LP,yes,-1.2432432432432432,0.5,-0.5,0
12,30,female,Slovakian,exp,3,44,exp,yes,475,mixed,j,495,win,0,185,0.6,30,0.4,50,HP-LP,f,748,HP,no-win,12_exp_3_44,18,20,LP,no,-0.10526315789473684,-0.5,0.5,1
12,30,female,Slovakian,exp,3,46,exp,no,364,mixed,j,559,win,0,473,0.6,20,0.4,50,LP-HP,j,888,HP,win,12_exp_3_46,12,20,LP,no,-0.5,-0.5,-0.5,1
12,30,female,Slovakian,exp,3,48,catch,no,386,mixed,j,525,win,0,454,0.8,40,0.2,20,HP-LP,f,747,HP,win,12_exp_3_48,32,4,HP,yes,1.5555555555555556,-0.5,-0.5,1
12,30,female,Slovakian,exp,3,50,catch,no,545,mixed,j,529,loss,0,441,0.7,10,0.6,50,LP-HP,f,1578,LP,win,12_exp_3_50,7,30,LP,yes,-1.2432432432432432,0.5,-0.5,0
12,30,female,Slovakian,exp,3,52,exp,yes,329,mixed,j,532,win,0,650,0.7,10,0.3,30,LP-HP,j,636,HP,win,12_exp_3_52,7,9,LP,no,-0.25,-0.5,0.5,1
12,30,female,Slovakian,exp,3,6,exp,yes,676,mixed,j,696,loss,1,1238,0.7,20,0.3,30,HP-LP,f,556,HP,win,12_exp_3_6,14,9,HP,yes,0.43478260869565216,0.5,0.5,1
12,30,female,Slovakian,exp,3,8,catch,no,784,mixed,j,652,loss,0,690,0.6,10,0.5,50,HP-LP,j,1376,LP,no-win,12_exp_3_8,6,25,LP,yes,-1.2258064516129032,0.5,-0.5,0
12,30,female,Slovakian,exp,4,10,catch,no,392,mixed,j,484,win,0,1055,0.8,10,0.7,50,LP-HP,f,1094,LP,win,12_exp_4_10,8,35,LP,yes,-1.255813953488372,-0.5,-0.5,0
12,30,female,Slovakian,exp,4,12,exp,no,649,mixed,j,571,win,0,1102,0.7,20,0.3,30,LP-HP,j,683,HP,win,12_exp_4_12,14,9,HP,yes,0.43478260869565216,-0.5,-0.5,1
12,30,female,Slovakian,exp,4,14,exp,yes,748,mixed,j,581,loss,0,662,0.6,20,0.4,50,LP-HP,j,513,HP,no-win,12_exp_4_14,12,20,LP,no,-0.5,0.5,0.5,1
12,30,female,Slovakian,exp,4,16,exp,yes,385,mixed,j,572,win,0,620,0.8,20,0.2,30,LP-HP,j,423,HP,win,12_exp_4_16,16,6,HP,yes,0.9090909090909091,-0.5,0.5,1
12,30,female,Slovakian,exp,4,18,exp,yes,732,mixed,j,569,win,0,1345,0.6,10,0.4,40,HP-LP,f,664,HP,win,12_exp_4_18,6,16,LP,no,-0.9090909090909091,-0.5,0.5,1
12,30,female,Slovakian,exp,4,2,exp,yes,1166,mixed,j,645,loss,0,465,0.7,30,0.3,40,LP-HP,j,506,HP,win,12_exp_4_2,21,12,HP,yes,0.5454545454545454,0.5,0.5,1
12,30,female,Slovakian,exp,4,20,exp,yes,695,mixed,j,510,loss,1,484,0.6,40,0.4,50,HP-LP,f,604,HP,win,12_exp_4_20,24,20,HP,yes,0.18181818181818182,0.5,0.5,1
12,30,female,Slovakian,exp,4,22,exp,no,549,mixed,j,550,loss,0,994,0.8,10,0.2,20,LP-HP,j,491,HP,win,12_exp_4_22,8,4,HP,yes,0.6666666666666666,0.5,-0.5,1
12,30,female,Slovakian,exp,4,24,exp,yes,468,mixed,j,974,loss,3,605,0.6,10,0.4,40,HP-LP,f,573,HP,win,12_exp_4_24,6,16,LP,no,-0.9090909090909091,0.5,0.5,1
12,30,female,Slovakian,exp,4,26,exp,no,547,mixed,j,559,loss,0,865,0.7,30,0.3,40,LP-HP,j,513,HP,win,12_exp_4_26,21,12,HP,yes,0.5454545454545454,0.5,-0.5,1
12,30,female,Slovakian,exp,4,28,exp,yes,757,mixed,f,404,win,1,580,0.6,20,0.4,50,HP-LP,f,914,HP,win,12_exp_4_28,12,20,LP,no,-0.5,-0.5,0.5,1
12,30,female,Slovakian,exp,4,30,exp,yes,377,mixed,f,549,loss,6,536,0.7,10,0.3,50,HP-LP,f,619,HP,win,12_exp_4_30,7,15,LP,no,-0.7272727272727273,0.5,0.5,1
12,30,female,Slovakian,exp,4,32,exp,no,498,mixed,f,1059,loss,0,327,0.6,30,0.4,50,HP-LP,f,581,HP,win,12_exp_4_32,18,20,LP,no,-0.10526315789473684,0.5,-0.5,1
12,30,female,Slovakian,exp,4,34,catch,no,326,mixed,f,889,loss,0,580,0.6,10,0.5,50,LP-HP,j,1019,HP,win,12_exp_4_34,6,25,LP,no,-1.2258064516129032,0.5,-0.5,1
12,30,female,Slovakian,exp,4,36,exp,no,564,mixed,j,675,win,0,485,0.6,40,0.4,50,HP-LP,f,754,HP,win,12_exp_4_36,24,20,HP,yes,0.18181818181818182,-0.5,-0.5,1
12,30,female,Slovakian,exp,4,38,exp,no,605,mixed,j,502,loss,0,274,0.7,10,0.3,30,HP-LP,f,578,HP,win,12_exp_4_38,7,9,LP,no,-0.25,0.5,-0.5,1
12,30,female,Slovakian,exp,4,4,catch,no,467,mixed,j,528,win,0,474,0.6,10,0.5,50,HP-LP,j,1938,LP,win,12_exp_4_4,6,25,LP,yes,-1.2258064516129032,-0.5,-0.5,0
12,30,female,Slovakian,exp,4,40,exp,yes,373,mixed,j,545,loss,2,2012,0.8,10,0.2,20,LP-HP,j,528,HP,win,12_exp_4_40,8,4,HP,yes,0.6666666666666666,0.5,0.5,1
12,30,female,Slovakian,exp,4,42,exp,yes,571,mixed,f,601,loss,0,187,0.8,20,0.2,30,LP-HP,j,707,HP,win,12_exp_4_42,16,6,HP,yes,0.9090909090909091,0.5,0.5,1
12,30,female,Slovakian,exp,4,44,exp,no,1004,mixed,j,514,win,0,336,0.7,10,0.3,50,HP-LP,f,665,HP,win,12_exp_4_44,7,15,LP,no,-0.7272727272727273,-0.5,-0.5,1
12,30,female,Slovakian,exp,4,46,exp,yes,349,mixed,j,491,win,0,491,0.7,20,0.3,30,HP-LP,f,645,HP,no-win,12_exp_4_46,14,9,HP,yes,0.43478260869565216,-0.5,0.5,1
12,30,female,Slovakian,exp,4,48,catch,no,675,mixed,j,416,win,0,570,0.8,50,0.2,30,HP-LP,f,498,HP,win,12_exp_4_48,40,6,HP,yes,1.4782608695652173,-0.5,-0.5,1
12,30,female,Slovakian,exp,4,50,catch,no,479,mixed,j,453,loss,0,388,0.7,30,0.3,10,HP-LP,f,287,HP,win,12_exp_4_50,21,3,HP,yes,1.5,0.5,-0.5,1
12,30,female,Slovakian,exp,4,52,catch,no,406,mixed,j,475,win,0,382,0.7,10,0.6,50,LP-HP,f,971,LP,win,12_exp_4_52,7,30,LP,yes,-1.2432432432432432,-0.5,-0.5,0
12,30,female,Slovakian,exp,4,6,exp,yes,507,mixed,j,543,win,2,481,0.8,20,0.2,30,HP-LP,f,591,HP,win,12_exp_4_6,16,6,HP,yes,0.9090909090909091,-0.5,0.5,1
12,30,female,Slovakian,exp,4,8,exp,no,474,mixed,j,502,win,0,584,0.7,10,0.3,50,LP-HP,j,518,HP,win,12_exp_4_8,7,15,LP,no,-0.7272727272727273,-0.5,-0.5,1
12,30,female,Slovakian,exp,5,10,exp,no,598,mixed,j,550,win,0,519,0.7,10,0.3,30,LP-HP,j,837,HP,no-win,12_exp_5_10,7,9,LP,no,-0.25,-0.5,-0.5,1
12,30,female,Slovakian,exp,5,12,catch,no,324,mixed,f,476,win,0,411,0.8,50,0.2,30,LP-HP,j,435,HP,win,12_exp_5_12,40,6,HP,yes,1.4782608695652173,-0.5,-0.5,1
12,30,female,Slovakian,exp,5,14,exp,yes,467,mixed,j,323,loss,0,597,0.6,20,0.4,50,HP-LP,f,633,HP,win,12_exp_5_14,12,20,LP,no,-0.5,0.5,0.5,1
12,30,female,Slovakian,exp,5,16,exp,no,553,mixed,j,394,loss,0,387,0.8,20,0.2,30,HP-LP,f,352,HP,win,12_exp_5_16,16,6,HP,yes,0.9090909090909091,0.5,-0.5,1
12,30,female,Slovakian,exp,5,18,exp,no,498,mixed,j,404,loss,0,493,0.7,30,0.3,40,HP-LP,f,395,HP,win,12_exp_5_18,21,12,HP,yes,0.5454545454545454,0.5,-0.5,1
12,30,female,Slovakian,exp,5,2,exp,yes,710,mixed,j,633,loss,0,413,0.6,30,0.4,50,LP-HP,j,914,HP,no-win,12_exp_5_2,18,20,LP,no,-0.10526315789473684,0.5,0.5,1
12,30,female,Slovakian,exp,5,20,exp,yes,431,mixed,j,422,loss,0,725,0.6,30,0.4,50,HP-LP,j,306,LP,no-win,12_exp_5_20,18,20,LP,yes,-0.10526315789473684,0.5,0.5,0
12,30,female,Slovakian,exp,5,22,exp,yes,941,mixed,f,585,loss,1,853,0.7,10,0.3,50,LP-HP,j,597,HP,win,12_exp_5_22,7,15,LP,no,-0.7272727272727273,0.5,0.5,1
12,30,female,Slovakian,exp,5,24,exp,no,454,mixed,j,617,win,0,391,0.6,20,0.4,50,HP-LP,f,530,HP,no-win,12_exp_5_24,12,20,LP,no,-0.5,-0.5,-0.5,1
12,30,female,Slovakian,exp,5,26,exp,yes,329,mixed,j,468,win,1,496,0.7,30,0.3,40,HP-LP,f,570,HP,win,12_exp_5_26,21,12,HP,yes,0.5454545454545454,-0.5,0.5,1
12,30,female,Slovakian,exp,5,28,catch,no,958,mixed,j,548,win,0,469,0.8,40,0.2,20,LP-HP,j,455,HP,win,12_exp_5_28,32,4,HP,yes,1.5555555555555556,-0.5,-0.5,1
12,30,female,Slovakian,exp,5,30,exp,no,450,mixed,j,462,loss,0,457,0.6,20,0.4,50,LP-HP,j,577,HP,win,12_exp_5_30,12,20,LP,no,-0.5,0.5,-0.5,1
12,30,female,Slovakian,exp,5,32,exp,yes,958,mixed,j,451,loss,1,471,0.6,40,0.4,50,LP-HP,j,707,HP,no-win,12_exp_5_32,24,20,HP,yes,0.18181818181818182,0.5,0.5,1
12,30,female,Slovakian,exp,5,34,exp,no,505,mixed,j,605,loss,0,402,0.6,20,0.4,50,HP-LP,f,754,HP,no-win,12_exp_5_34,12,20,LP,no,-0.5,0.5,-0.5,1
12,30,female,Slovakian,exp,5,36,exp,no,607,mixed,j,378,loss,0,520,0.6,40,0.4,50,HP-LP,f,675,HP,no-win,12_exp_5_36,24,20,HP,yes,0.18181818181818182,0.5,-0.5,1
12,30,female,Slovakian,exp,5,38,catch,no,663,mixed,f,501,loss,0,375,0.7,30,0.3,10,LP-HP,j,418,HP,no-win,12_exp_5_38,21,3,HP,yes,1.5,0.5,-0.5,1
12,30,female,Slovakian,exp,5,4,exp,yes,594,mixed,j,839,win,1,526,0.7,10,0.3,50,LP-HP,j,490,HP,win,12_exp_5_4,7,15,LP,no,-0.7272727272727273,-0.5,0.5,1
12,30,female,Slovakian,exp,5,40,exp,yes,389,mixed,j,573,loss,0,497,0.8,10,0.2,20,HP-LP,f,389,HP,win,12_exp_5_40,8,4,HP,yes,0.6666666666666666,0.5,0.5,1
12,30,female,Slovakian,exp,5,42,catch,no,417,mixed,j,488,win,0,395,0.7,30,0.3,10,LP-HP,j,585,HP,no-win,12_exp_5_42,21,3,HP,yes,1.5,-0.5,-0.5,1
12,30,female,Slovakian,exp,5,44,exp,no,334,mixed,j,334,loss,0,474,0.7,10,0.3,50,LP-HP,j,927,HP,win,12_exp_5_44,7,15,LP,no,-0.7272727272727273,0.5,-0.5,1
12,30,female,Slovakian,exp,5,46,exp,yes,404,mixed,f,559,loss,1,461,0.8,20,0.2,30,HP-LP,f,744,HP,win,12_exp_5_46,16,6,HP,yes,0.9090909090909091,0.5,0.5,1
12,30,female,Slovakian,exp,5,48,catch,no,432,mixed,j,551,win,0,339,0.7,30,0.3,10,HP-LP,j,327,LP,win,12_exp_5_48,21,3,HP,no,1.5,-0.5,-0.5,0
12,30,female,Slovakian,exp,5,50,exp,no,375,mixed,j,693,loss,0,367,0.6,10,0.4,40,LP-HP,j,1168,HP,win,12_exp_5_50,6,16,LP,no,-0.9090909090909091,0.5,-0.5,1
12,30,female,Slovakian,exp,5,52,exp,no,720,mixed,f,648,loss,0,820,0.6,40,0.4,50,LP-HP,j,1065,HP,no-win,12_exp_5_52,24,20,HP,yes,0.18181818181818182,0.5,-0.5,1
12,30,female,Slovakian,exp,5,6,catch,no,394,mixed,f,585,win,0,384,0.6,10,0.5,50,LP-HP,f,711,LP,no-win,12_exp_5_6,6,25,LP,yes,-1.2258064516129032,-0.5,-0.5,0
12,30,female,Slovakian,exp,5,8,exp,yes,506,mixed,j,452,win,0,1031,0.8,10,0.2,20,HP-LP,f,577,HP,win,12_exp_5_8,8,4,HP,yes,0.6666666666666666,-0.5,0.5,1
12,30,female,Slovakian,exp,6,10,exp,no,351,mixed,j,487,loss,0,448,0.6,30,0.4,50,LP-HP,j,639,HP,win,12_exp_6_10,18,20,LP,no,-0.10526315789473684,0.5,-0.5,1
12,30,female,Slovakian,exp,6,12,exp,no,393,mixed,f,467,win,0,594,0.6,10,0.4,40,LP-HP,j,434,HP,win,12_exp_6_12,6,16,LP,no,-0.9090909090909091,-0.5,-0.5,1
12,30,female,Slovakian,exp,6,14,exp,yes,401,mixed,j,321,win,0,486,0.7,30,0.3,40,LP-HP,j,294,HP,win,12_exp_6_14,21,12,HP,yes,0.5454545454545454,-0.5,0.5,1
12,30,female,Slovakian,exp,6,16,catch,no,574,mixed,j,438,loss,0,412,0.8,50,0.2,30,LP-HP,j,451,HP,win,12_exp_6_16,40,6,HP,yes,1.4782608695652173,0.5,-0.5,1
12,30,female,Slovakian,exp,6,18,exp,yes,313,mixed,j,476,loss,1,534,0.7,10,0.3,30,LP-HP,j,546,HP,no-win,12_exp_6_18,7,9,LP,no,-0.25,0.5,0.5,1
12,30,female,Slovakian,exp,6,2,exp,no,1031,mixed,j,613,win,0,384,0.6,30,0.4,50,HP-LP,f,720,HP,no-win,12_exp_6_2,18,20,LP,no,-0.10526315789473684,-0.5,-0.5,1
12,30,female,Slovakian,exp,6,20,exp,no,586,mixed,f,857,win,0,516,0.7,30,0.3,40,HP-LP,f,897,HP,no-win,12_exp_6_20,21,12,HP,yes,0.5454545454545454,-0.5,-0.5,1
12,30,female,Slovakian,exp,6,22,exp,no,670,mixed,j,436,loss,0,425,0.6,10,0.4,40,HP-LP,j,1436,LP,no-win,12_exp_6_22,6,16,LP,yes,-0.9090909090909091,0.5,-0.5,0
12,30,female,Slovakian,exp,6,24,exp,no,533,mixed,f,638,loss,0,449,0.7,20,0.3,30,HP-LP,f,663,HP,win,12_exp_6_24,14,9,HP,yes,0.43478260869565216,0.5,-0.5,1
12,30,female,Slovakian,exp,6,26,exp,no,346,mixed,j,496,loss,0,436,0.7,20,0.3,30,LP-HP,j,370,HP,win,12_exp_6_26,14,9,HP,yes,0.43478260869565216,0.5,-0.5,1
12,30,female,Slovakian,exp,6,28,catch,no,407,mixed,f,609,loss,0,444,0.8,50,0.2,30,HP-LP,f,599,HP,win,12_exp_6_28,40,6,HP,yes,1.4782608695652173,0.5,-0.5,1
12,30,female,Slovakian,exp,6,30,catch,no,386,mixed,j,399,loss,0,315,0.8,10,0.7,50,HP-LP,j,853,LP,no-win,12_exp_6_30,8,35,LP,yes,-1.255813953488372,0.5,-0.5,0
12,30,female,Slovakian,exp,6,32,exp,no,393,mixed,j,458,win,0,396,0.8,20,0.2,30,HP-LP,f,479,HP,win,12_exp_6_32,16,6,HP,yes,0.9090909090909091,-0.5,-0.5,1
12,30,female,Slovakian,exp,6,34,catch,no,591,mixed,j,431,loss,0,307,0.8,10,0.7,50,LP-HP,f,1053,LP,win,12_exp_6_34,8,35,LP,yes,-1.255813953488372,0.5,-0.5,0
12,30,female,Slovakian,exp,6,36,exp,yes,468,mixed,j,465,win,0,626,0.6,40,0.4,50,HP-LP,f,589,HP,no-win,12_exp_6_36,24,20,HP,yes,0.18181818181818182,-0.5,0.5,1
12,30,female,Slovakian,exp,6,38,exp,no,1365,mixed,j,710,win,0,661,0.8,10,0.2,20,LP-HP,j,462,HP,win,12_exp_6_38,8,4,HP,yes,0.6666666666666666,-0.5,-0.5,1
12,30,female,Slovakian,exp,6,4,exp,yes,950,mixed,j,381,win,1,496,0.6,10,0.4,40,LP-HP,j,367,HP,win,12_exp_6_4,6,16,LP,no,-0.9090909090909091,-0.5,0.5,1
12,30,female,Slovakian,exp,6,40,exp,no,273,mixed,j,465,loss,0,697,0.7,10,0.3,30,LP-HP,j,496,HP,no-win,12_exp_6_40,7,9,LP,no,-0.25,0.5,-0.5,1
12,30,female,Slovakian,exp,6,42,exp,no,431,mixed,f,583,win,0,2175,0.7,10,0.3,30,HP-LP,f,1053,HP,win,12_exp_6_42,7,9,LP,no,-0.25,-0.5,-0.5,1
12,30,female,Slovakian,exp,6,44,catch,no,558,mixed,f,562,win,0,596,0.7,10,0.6,50,HP-LP,j,449,LP,win,12_exp_6_44,7,30,LP,yes,-1.2432432432432432,-0.5,-0.5,0
12,30,female,Slovakian,exp,6,46,exp,yes,474,mixed,f,546,win,0,709,0.8,10,0.2,20,LP-HP,j,514,HP,win,12_exp_6_46,8,4,HP,yes,0.6666666666666666,-0.5,0.5,1
12,30,female,Slovakian,exp,6,48,exp,yes,391,mixed,j,490,win,0,492,0.6,30,0.4,50,LP-HP,f,1350,LP,win,12_exp_6_48,18,20,LP,yes,-0.10526315789473684,-0.5,0.5,0
12,30,female,Slovakian,exp,6,50,exp,yes,656,mixed,j,680,loss,0,1075,0.7,10,0.3,30,HP-LP,f,641,HP,win,12_exp_6_50,7,9,LP,no,-0.25,0.5,0.5,1
12,30,female,Slovakian,exp,6,52,exp,no,477,mixed,j,461,loss,0,374,0.7,10,0.3,50,HP-LP,f,718,HP,win,12_exp_6_52,7,15,LP,no,-0.7272727272727273,0.5,-0.5,1
12,30,female,Slovakian,exp,6,6,exp,yes,474,mixed,j,439,win,0,511,0.7,10,0.3,30,HP-LP,f,423,HP,no-win,12_exp_6_6,7,9,LP,no,-0.25,-0.5,0.5,1
12,30,female,Slovakian,exp,6,8,catch,no,464,mixed,j,414,loss,0,354,0.8,40,0.2,20,LP-HP,j,936,HP,win,12_exp_6_8,32,4,HP,yes,1.5555555555555556,0.5,-0.5,1
13,30,female,british,exp,3,10,exp,yes,429,mixed,j,476,loss,0,748,0.8,20,0.2,30,LP-HP,j,639,HP,no-win,13_exp_3_10,16,6,HP,yes,0.9090909090909091,0.5,0.5,1
13,30,female,british,exp,3,12,exp,no,1066,mixed,j,1145,win,0,562,0.8,20,0.2,30,HP-LP,f,752,HP,win,13_exp_3_12,16,6,HP,yes,0.9090909090909091,-0.5,-0.5,1
13,30,female,british,exp,3,14,exp,yes,655,mixed,j,919,loss,1,417,0.6,30,0.4,50,LP-HP,j,827,HP,no-win,13_exp_3_14,18,20,LP,no,-0.10526315789473684,0.5,0.5,1
13,30,female,british,exp,3,16,catch,no,450,mixed,j,1082,loss,0,433,0.8,40,0.2,20,LP-HP,j,626,HP,win,13_exp_3_16,32,4,HP,yes,1.5555555555555556,0.5,-0.5,1
13,30,female,british,exp,3,18,exp,no,415,mixed,f,776,loss,0,505,0.6,10,0.4,40,HP-LP,f,1133,HP,win,13_exp_3_18,6,16,LP,no,-0.9090909090909091,0.5,-0.5,1
13,30,female,british,exp,3,2,exp,no,2348,mixed,f,945,loss,0,465,0.8,10,0.2,20,LP-HP,j,1036,HP,no-win,13_exp_3_2,8,4,HP,yes,0.6666666666666666,0.5,-0.5,1
13,30,female,british,exp,3,20,exp,no,499,mixed,f,860,loss,0,511,0.7,30,0.3,40,HP-LP,f,682,HP,no-win,13_exp_3_20,21,12,HP,yes,0.5454545454545454,0.5,-0.5,1
13,30,female,british,exp,3,22,exp,yes,719,mixed,f,408,loss,1,406,0.6,30,0.4,50,HP-LP,j,2127,LP,no-win,13_exp_3_22,18,20,LP,yes,-0.10526315789473684,0.5,0.5,0
13,30,female,british,exp,3,24,exp,no,469,mixed,j,951,loss,0,530,0.6,30,0.4,50,LP-HP,j,647,HP,no-win,13_exp_3_24,18,20,LP,no,-0.10526315789473684,0.5,-0.5,1
13,30,female,british,exp,3,26,exp,yes,470,mixed,j,1496,loss,0,550,0.8,10,0.2,20,HP-LP,f,727,HP,win,13_exp_3_26,8,4,HP,yes,0.6666666666666666,0.5,0.5,1
13,30,female,british,exp,3,28,exp,no,440,mixed,f,838,loss,0,558,0.6,20,0.4,50,LP-HP,j,769,HP,win,13_exp_3_28,12,20,LP,no,-0.5,0.5,-0.5,1
13,30,female,british,exp,3,30,catch,no,449,mixed,j,2843,loss,0,475,0.6,10,0.5,50,HP-LP,j,841,LP,no-win,13_exp_3_30,6,25,LP,yes,-1.2258064516129032,0.5,-0.5,0
13,30,female,british,exp,3,32,exp,yes,678,mixed,j,724,win,0,501,0.6,20,0.4,50,HP-LP,j,1906,LP,no-win,13_exp_3_32,12,20,LP,yes,-0.5,-0.5,0.5,0
13,30,female,british,exp,3,34,exp,no,591,mixed,f,723,win,0,435,0.8,20,0.2,30,LP-HP,j,730,HP,win,13_exp_3_34,16,6,HP,yes,0.9090909090909091,-0.5,-0.5,1
13,30,female,british,exp,3,36,exp,yes,510,mixed,f,344,win,0,428,0.7,10,0.3,30,LP-HP,j,1175,HP,no-win,13_exp_3_36,7,9,LP,no,-0.25,-0.5,0.5,1
13,30,female,british,exp,3,38,exp,no,429,mixed,j,1299,win,0,369,0.8,10,0.2,20,HP-LP,f,620,HP,win,13_exp_3_38,8,4,HP,yes,0.6666666666666666,-0.5,-0.5,1
13,30,female,british,exp,3,4,exp,yes,556,mixed,j,589,loss,0,345,0.6,20,0.4,50,LP-HP,f,1831,LP,no-win,13_exp_3_4,12,20,LP,yes,-0.5,0.5,0.5,0
13,30,female,british,exp,3,40,catch,no,501,mixed,j,593,win,0,416,0.7,30,0.3,10,HP-LP,f,820,HP,win,13_exp_3_40,21,3,HP,yes,1.5,-0.5,-0.5,1
13,30,female,british,exp,3,42,catch,no,372,mixed,j,819,loss,0,364,0.8,10,0.7,50,HP-LP,j,1382,LP,win,13_exp_3_42,8,35,LP,yes,-1.255813953488372,0.5,-0.5,0
13,30,female,british,exp,3,44,catch,no,406,mixed,f,499,win,0,440,0.8,40,0.2,20,HP-LP,f,743,HP,win,13_exp_3_44,32,4,HP,yes,1.5555555555555556,-0.5,-0.5,1
13,30,female,british,exp,3,46,exp,yes,242,mixed,j,487,win,1,540,0.8,20,0.2,30,LP-HP,j,564,HP,win,13_exp_3_46,16,6,HP,yes,0.9090909090909091,-0.5,0.5,1
13,30,female,british,exp,3,48,exp,no,511,mixed,j,1596,loss,0,623,0.7,20,0.3,30,HP-LP,f,865,HP,win,13_exp_3_48,14,9,HP,yes,0.43478260869565216,0.5,-0.5,1
13,30,female,british,exp,3,50,exp,yes,456,mixed,j,319,loss,0,424,0.7,20,0.3,30,HP-LP,f,635,HP,win,13_exp_3_50,14,9,HP,yes,0.43478260869565216,0.5,0.5,1
13,30,female,british,exp,3,52,catch,no,412,mixed,j,398,win,0,436,0.8,10,0.7,50,LP-HP,f,1281,LP,no-win,13_exp_3_52,8,35,LP,yes,-1.255813953488372,-0.5,-0.5,0
13,30,female,british,exp,3,6,exp,yes,570,mixed,j,832,loss,0,494,0.7,30,0.3,40,HP-LP,f,941,HP,no-win,13_exp_3_6,21,12,HP,yes,0.5454545454545454,0.5,0.5,1
13,30,female,british,exp,3,8,exp,no,1820,mixed,f,751,loss,0,483,0.6,10,0.4,40,LP-HP,j,678,HP,win,13_exp_3_8,6,16,LP,no,-0.9090909090909091,0.5,-0.5,1
13,30,female,british,exp,4,10,exp,no,395,mixed,f,1145,loss,0,544,0.7,10,0.3,30,HP-LP,f,834,HP,win,13_exp_4_10,7,9,LP,no,-0.25,0.5,-0.5,1
13,30,female,british,exp,4,12,exp,no,410,mixed,j,418,win,0,462,0.7,20,0.3,30,LP-HP,j,801,HP,no-win,13_exp_4_12,14,9,HP,yes,0.43478260869565216,-0.5,-0.5,1
13,30,female,british,exp,4,14,exp,yes,275,mixed,j,549,win,0,397,0.8,10,0.2,20,LP-HP,j,694,HP,win,13_exp_4_14,8,4,HP,yes,0.6666666666666666,-0.5,0.5,1
13,30,female,british,exp,4,16,exp,yes,375,mixed,j,568,win,0,411,0.6,20,0.4,50,LP-HP,j,1093,HP,no-win,13_exp_4_16,12,20,LP,no,-0.5,-0.5,0.5,1
13,30,female,british,exp,4,18,exp,yes,426,mixed,f,606,win,0,405,0.6,30,0.4,50,HP-LP,f,1780,HP,no-win,13_exp_4_18,18,20,LP,no,-0.10526315789473684,-0.5,0.5,1
13,30,female,british,exp,4,2,exp,no,690,mixed,j,2881,win,0,468,0.7,20,0.3,30,HP-LP,f,652,HP,win,13_exp_4_2,14,9,HP,yes,0.43478260869565216,-0.5,-0.5,1
13,30,female,british,exp,4,20,exp,no,1054,mixed,f,1259,win,0,393,0.6,20,0.4,50,LP-HP,j,667,HP,win,13_exp_4_20,12,20,LP,no,-0.5,-0.5,-0.5,1
13,30,female,british,exp,4,22,exp,yes,418,mixed,f,408,loss,0,323,0.6,20,0.4,50,HP-LP,f,1209,HP,no-win,13_exp_4_22,12,20,LP,no,-0.5,0.5,0.5,1
13,30,female,british,exp,4,24,exp,no,485,mixed,j,593,win,0,505,0.6,30,0.4,50,HP-LP,f,855,HP,win,13_exp_4_24,18,20,LP,no,-0.10526315789473684,-0.5,-0.5,1
13,30,female,british,exp,4,26,exp,no,371,mixed,j,452,win,0,400,0.7,30,0.3,40,LP-HP,j,1050,HP,win,13_exp_4_26,21,12,HP,yes,0.5454545454545454,-0.5,-0.5,1
13,30,female,british,exp,4,28,catch,no,329,mixed,j,330,win,0,402,0.8,50,0.2,30,HP-LP,f,695,HP,win,13_exp_4_28,40,6,HP,yes,1.4782608695652173,-0.5,-0.5,1
13,30,female,british,exp,4,30,exp,no,506,mixed,j,305,loss,0,405,0.7,20,0.3,30,LP-HP,j,619,HP,win,13_exp_4_30,14,9,HP,yes,0.43478260869565216,0.5,-0.5,1
13,30,female,british,exp,4,32,exp,yes,321,mixed,f,337,win,0,358,0.8,20,0.2,30,HP-LP,f,668,HP,no-win,13_exp_4_32,16,6,HP,yes,0.9090909090909091,-0.5,0.5,1
13,30,female,british,exp,4,34,exp,no,486,mixed,j,556,loss,0,369,0.8,20,0.2,30,LP-HP,j,633,HP,win,13_exp_4_34,16,6,HP,yes,0.9090909090909091,0.5,-0.5,1
13,30,female,british,exp,4,36,catch,no,324,mixed,f,344,loss,0,387,0.7,10,0.6,50,LP-HP,f,1040,LP,win,13_exp_4_36,7,30,LP,yes,-1.2432432432432432,0.5,-0.5,0
13,30,female,british,exp,4,38,exp,no,373,mixed,j,505,loss,0,405,0.6,20,0.4,50,HP-LP,f,859,HP,win,13_exp_4_38,12,20,LP,no,-0.5,0.5,-0.5,1
13,30,female,british,exp,4,4,exp,no,486,mixed,j,658,win,0,472,0.6,20,0.4,50,HP-LP,f,710,HP,win,13_exp_4_4,12,20,LP,no,-0.5,-0.5,-0.5,1
13,30,female,british,exp,4,40,catch,no,640,mixed,f,622,loss,0,788,0.8,50,0.2,30,HP-LP,f,699,HP,win,13_exp_4_40,40,6,HP,yes,1.4782608695652173,0.5,-0.5,1
13,30,female,british,exp,4,42,exp,yes,428,mixed,f,393,win,0,1012,0.7,10,0.3,30,HP-LP,f,758,HP,win,13_exp_4_42,7,9,LP,no,-0.25,-0.5,0.5,1
13,30,female,british,exp,4,44,exp,no,354,mixed,j,313,win,0,390,0.7,10,0.3,30,LP-HP,j,674,HP,win,13_exp_4_44,7,9,LP,no,-0.25,-0.5,-0.5,1
13,30,female,british,exp,4,46,exp,yes,404,mixed,f,1912,win,0,449,0.7,20,0.3,30,HP-LP,f,672,HP,no-win,13_exp_4_46,14,9,HP,yes,0.43478260869565216,-0.5,0.5,1
13,30,female,british,exp,4,48,catch,no,306,mixed,j,331,loss,0,485,0.8,50,0.2,30,LP-HP,j,626,HP,win,13_exp_4_48,40,6,HP,yes,1.4782608695652173,0.5,-0.5,1
13,30,female,british,exp,4,50,catch,no,348,mixed,j,322,win,0,436,0.7,30,0.3,10,LP-HP,j,540,HP,win,13_exp_4_50,21,3,HP,yes,1.5,-0.5,-0.5,1
13,30,female,british,exp,4,52,exp,no,412,mixed,f,719,win,0,409,0.7,10,0.3,30,HP-LP,f,888,HP,win,13_exp_4_52,7,9,LP,no,-0.25,-0.5,-0.5,1
13,30,female,british,exp,4,6,catch,no,366,mixed,f,553,loss,0,600,0.6,10,0.5,50,LP-HP,f,2353,LP,no-win,13_exp_4_6,6,25,LP,yes,-1.2258064516129032,0.5,-0.5,0
13,30,female,british,exp,4,8,exp,yes,342,mixed,f,510,win,0,486,0.6,30,0.4,50,LP-HP,j,723,HP,win,13_exp_4_8,18,20,LP,no,-0.10526315789473684,-0.5,0.5,1
13,30,female,british,exp,5,10,catch,no,423,mixed,f,345,loss,0,435,0.8,10,0.7,50,LP-HP,f,1675,LP,no-win,13_exp_5_10,8,35,LP,yes,-1.255813953488372,0.5,-0.5,0
13,30,female,british,exp,5,12,exp,no,533,mixed,j,795,win,0,603,0.8,10,0.2,20,LP-HP,j,655,HP,win,13_exp_5_12,8,4,HP,yes,0.6666666666666666,-0.5,-0.5,1
13,30,female,british,exp,5,14,catch,no,479,mixed,f,451,loss,0,437,0.7,10,0.6,50,HP-LP,j,1589,LP,no-win,13_exp_5_14,7,30,LP,yes,-1.2432432432432432,0.5,-0.5,0
13,30,female,british,exp,5,16,exp,yes,677,mixed,f,612,loss,0,878,0.7,10,0.3,30,HP-LP,f,866,HP,win,13_exp_5_16,7,9,LP,no,-0.25,0.5,0.5,1
13,30,female,british,exp,5,18,exp,yes,359,mixed,j,984,win,0,579,0.6,10,0.4,40,HP-LP,f,1461,HP,win,13_exp_5_18,6,16,LP,no,-0.9090909090909091,-0.5,0.5,1
13,30,female,british,exp,5,2,exp,no,575,mixed,j,521,win,0,408,0.7,10,0.3,50,HP-LP,f,551,HP,win,13_exp_5_2,7,15,LP,no,-0.7272727272727273,-0.5,-0.5,1
13,30,female,british,exp,5,20,exp,yes,261,mixed,f,1483,win,0,392,0.6,40,0.4,50,LP-HP,j,1020,HP,win,13_exp_5_20,24,20,HP,yes,0.18181818181818182,-0.5,0.5,1
13,30,female,british,exp,5,22,catch,no,532,mixed,f,1043,loss,0,531,0.8,40,0.2,20,HP-LP,f,663,HP,no-win,13_exp_5_22,32,4,HP,yes,1.5555555555555556,0.5,-0.5,1
13,30,female,british,exp,5,24,exp,no,345,mixed,j,334,loss,0,337,0.7,10,0.3,50,LP-HP,j,642,HP,no-win,13_exp_5_24,7,15,LP,no,-0.7272727272727273,0.5,-0.5,1
13,30,female,british,exp,5,26,exp,yes,360,mixed,f,391,loss,1,454,0.6,10,0.4,40,HP-LP,f,762,HP,win,13_exp_5_26,6,16,LP,no,-0.9090909090909091,0.5,0.5,1
13,30,female,british,exp,5,28,exp,no,538,mixed,f,702,loss,0,456,0.8,20,0.2,30,HP-LP,f,591,HP,win,13_exp_5_28,16,6,HP,yes,0.9090909090909091,0.5,-0.5,1
13,30,female,british,exp,5,30,exp,yes,358,mixed,f,407,win,0,519,0.7,10,0.3,50,LP-HP,j,534,HP,win,13_exp_5_30,7,15,LP,no,-0.7272727272727273,-0.5,0.5,1
13,30,female,british,exp,5,32,exp,no,491,mixed,f,443,loss,0,392,0.8,10,0.2,20,HP-LP,f,886,HP,win,13_exp_5_32,8,4,HP,yes,0.6666666666666666,0.5,-0.5,1
13,30,female,british,exp,5,34,exp,yes,443,mixed,j,303,loss,1,423,0.7,20,0.3,30,LP-HP,j,528,HP,win,13_exp_5_34,14,9,HP,yes,0.43478260869565216,0.5,0.5,1
13,30,female,british,exp,5,36,catch,no,338,mixed,f,354,win,0,459,0.6,10,0.5,50,HP-LP,j,1302,LP,win,13_exp_5_36,6,25,LP,yes,-1.2258064516129032,-0.5,-0.5,0
13,30,female,british,exp,5,38,exp,yes,639,mixed,f,380,loss,0,419,0.6,40,0.4,50,HP-LP,f,834,HP,no-win,13_exp_5_38,24,20,HP,yes,0.18181818181818182,0.5,0.5,1
13,30,female,british,exp,5,4,exp,yes,367,mixed,j,1197,loss,0,481,0.8,20,0.2,30,HP-LP,f,694,HP,win,13_exp_5_4,16,6,HP,yes,0.9090909090909091,0.5,0.5,1
13,30,female,british,exp,5,40,exp,no,337,mixed,f,548,win,0,458,0.6,40,0.4,50,HP-LP,f,681,HP,no-win,13_exp_5_40,24,20,HP,yes,0.18181818181818182,-0.5,-0.5,1
13,30,female,british,exp,5,42,exp,no,537,mixed,f,846,win,0,416,0.7,30,0.3,40,HP-LP,f,515,HP,win,13_exp_5_42,21,12,HP,yes,0.5454545454545454,-0.5,-0.5,1
13,30,female,british,exp,5,44,exp,no,416,mixed,j,460,win,0,438,0.6,10,0.4,40,LP-HP,j,3102,HP,win,13_exp_5_44,6,16,LP,no,-0.9090909090909091,-0.5,-0.5,1
13,30,female,british,exp,5,46,exp,yes,487,mixed,f,262,win,0,359,0.8,10,0.2,20,HP-LP,f,674,HP,win,13_exp_5_46,8,4,HP,yes,0.6666666666666666,-0.5,0.5,1
13,30,female,british,exp,5,48,exp,yes,389,mixed,f,536,win,0,690,0.6,40,0.4,50,HP-LP,f,683,HP,win,13_exp_5_48,24,20,HP,yes,0.18181818181818182,-0.5,0.5,1
13,30,female,british,exp,5,50,exp,yes,494,mixed,j,462,loss,0,552,0.7,10,0.3,50,LP-HP,j,606,HP,win,13_exp_5_50,7,15,LP,no,-0.7272727272727273,0.5,0.5,1
13,30,female,british,exp,5,52,exp,yes,446,mixed,j,1062,loss,0,694,0.7,10,0.3,30,LP-HP,j,526,HP,win,13_exp_5_52,7,9,LP,no,-0.25,0.5,0.5,1
13,30,female,british,exp,5,6,catch,no,411,mixed,j,331,loss,0,494,0.7,30,0.3,10,HP-LP,f,580,HP,win,13_exp_5_6,21,3,HP,yes,1.5,0.5,-0.5,1
13,30,female,british,exp,5,8,catch,no,422,mixed,f,371,loss,0,475,0.7,30,0.3,10,LP-HP,j,525,HP,win,13_exp_5_8,21,3,HP,yes,1.5,0.5,-0.5,1
13,30,female,british,exp,6,10,exp,yes,312,mixed,j,602,loss,1,307,0.7,30,0.3,40,LP-HP,j,482,HP,win,13_exp_6_10,21,12,HP,yes,0.5454545454545454,0.5,0.5,1
13,30,female,british,exp,6,12,exp,no,374,mixed,f,283,win,0,420,0.7,10,0.3,50,LP-HP,j,517,HP,win,13_exp_6_12,7,15,LP,no,-0.7272727272727273,-0.5,-0.5,1
13,30,female,british,exp,6,14,exp,yes,336,mixed,f,330,loss,1,318,0.8,10,0.2,20,LP-HP,j,488,HP,win,13_exp_6_14,8,4,HP,yes,0.6666666666666666,0.5,0.5,1
13,30,female,british,exp,6,16,exp,no,271,mixed,f,309,loss,0,390,0.6,30,0.4,50,HP-LP,f,748,HP,win,13_exp_6_16,18,20,LP,no,-0.10526315789473684,0.5,-0.5,1
13,30,female,british,exp,6,18,exp,no,614,mixed,j,272,loss,0,326,0.7,30,0.3,40,LP-HP,j,603,HP,win,13_exp_6_18,21,12,HP,yes,0.5454545454545454,0.5,-0.5,1
13,30,female,british,exp,6,2,catch,no,840,mixed,f,502,win,0,444,0.6,10,0.5,50,LP-HP,f,1405,LP,win,13_exp_6_2,6,25,LP,yes,-1.2258064516129032,-0.5,-0.5,0
13,30,female,british,exp,6,20,exp,yes,480,mixed,f,312,loss,0,440,0.6,40,0.4,50,LP-HP,f,268,LP,win,13_exp_6_20,24,20,HP,no,0.18181818181818182,0.5,0.5,0
13,30,female,british,exp,6,22,catch,no,437,mixed,f,865,win,0,420,0.7,10,0.6,50,LP-HP,f,1081,LP,no-win,13_exp_6_22,7,30,LP,yes,-1.2432432432432432,-0.5,-0.5,0
13,30,female,british,exp,6,24,catch,no,584,mixed,f,696,win,0,367,0.7,10,0.6,50,HP-LP,j,807,LP,no-win,13_exp_6_24,7,30,LP,yes,-1.2432432432432432,-0.5,-0.5,0
13,30,female,british,exp,6,26,exp,no,354,mixed,f,349,loss,0,470,0.6,40,0.4,50,LP-HP,j,727,HP,win,13_exp_6_26,24,20,HP,yes,0.18181818181818182,0.5,-0.5,1
13,30,female,british,exp,6,28,exp,no,410,mixed,f,265,win,0,455,0.6,10,0.4,40,HP-LP,f,1396,HP,no-win,13_exp_6_28,6,16,LP,no,-0.9090909090909091,-0.5,-0.5,1
13,30,female,british,exp,6,30,exp,yes,415,mixed,f,549,loss,0,450,0.7,10,0.3,50,HP-LP,j,928,LP,no-win,13_exp_6_30,7,15,LP,yes,-0.7272727272727273,0.5,0.5,0
13,30,female,british,exp,6,32,catch,no,422,mixed,f,269,win,0,357,0.8,10,0.7,50,HP-LP,j,727,LP,win,13_exp_6_32,8,35,LP,yes,-1.255813953488372,-0.5,-0.5,0
13,30,female,british,exp,6,34,exp,no,383,mixed,f,750,loss,0,595,0.7,10,0.3,50,HP-LP,f,2266,HP,win,13_exp_6_34,7,15,LP,no,-0.7272727272727273,0.5,-0.5,1
13,30,female,british,exp,6,36,catch,no,290,mixed,f,324,win,0,425,0.8,50,0.2,30,LP-HP,j,586,HP,win,13_exp_6_36,40,6,HP,yes,1.4782608695652173,-0.5,-0.5,1
13,30,female,british,exp,6,38,exp,yes,505,mixed,f,281,win,0,561,0.7,30,0.3,40,LP-HP,j,606,HP,win,13_exp_6_38,21,12,HP,yes,0.5454545454545454,-0.5,0.5,1
13,30,female,british,exp,6,4,exp,yes,438,mixed,f,302,win,0,308,0.6,10,0.4,40,LP-HP,j,1433,HP,win,13_exp_6_4,6,16,LP,no,-0.9090909090909091,-0.5,0.5,1
13,30,female,british,exp,6,40,exp,yes,308,mixed,j,274,win,0,503,0.7,20,0.3,30,LP-HP,j,841,HP,win,13_exp_6_40,14,9,HP,yes,0.43478260869565216,-0.5,0.5,1
13,30,female,british,exp,6,42,exp,no,381,mixed,f,313,win,0,447,0.6,40,0.4,50,LP-HP,j,2427,HP,no-win,13_exp_6_42,24,20,HP,yes,0.18181818181818182,-0.5,-0.5,1
13,30,female,british,exp,6,44,catch,no,637,mixed,f,348,win,0,422,0.8,40,0.2,20,LP-HP,j,501,HP,win,13_exp_6_44,32,4,HP,yes,1.5555555555555556,-0.5,-0.5,1
13,30,female,british,exp,6,46,exp,yes,342,mixed,f,282,win,0,284,0.7,10,0.3,50,HP-LP,j,1543,LP,win,13_exp_6_46,7,15,LP,yes,-0.7272727272727273,-0.5,0.5,0
13,30,female,british,exp,6,48,exp,no,446,mixed,f,622,loss,0,400,0.7,10,0.3,30,LP-HP,j,843,HP,win,13_exp_6_48,7,9,LP,no,-0.25,0.5,-0.5,1
13,30,female,british,exp,6,50,exp,no,400,mixed,f,247,win,0,524,0.6,30,0.4,50,LP-HP,f,1578,LP,no-win,13_exp_6_50,18,20,LP,yes,-0.10526315789473684,-0.5,-0.5,0
13,30,female,british,exp,6,52,exp,yes,302,mixed,f,329,loss,1,980,0.6,10,0.4,40,LP-HP,j,1856,HP,win,13_exp_6_52,6,16,LP,no,-0.9090909090909091,0.5,0.5,1
13,30,female,british,exp,6,6,exp,yes,344,mixed,f,400,win,0,424,0.7,30,0.3,40,HP-LP,f,640,HP,win,13_exp_6_6,21,12,HP,yes,0.5454545454545454,-0.5,0.5,1
13,30,female,british,exp,6,8,exp,no,372,mixed,j,330,loss,0,535,0.6,40,0.4,50,HP-LP,f,683,HP,win,13_exp_6_8,24,20,HP,yes,0.18181818181818182,0.5,-0.5,1
14,30,male,GREEK,exp,3,10,catch,no,186,mixed,j,1479,win,0,984,0.8,50,0.2,30,HP-LP,f,727,HP,win,14_exp_3_10,40,6,HP,yes,1.4782608695652173,-0.5,-0.5,1
14,30,male,GREEK,exp,3,12,exp,yes,279,mixed,f,1320,loss,1,503,0.6,40,0.4,50,LP-HP,j,1496,HP,win,14_exp_3_12,24,20,HP,yes,0.18181818181818182,0.5,0.5,1
14,30,male,GREEK,exp,3,14,catch,no,184,mixed,j,1015,win,0,123,0.6,10,0.5,50,HP-LP,j,1207,LP,no-win,14_exp_3_14,6,25,LP,yes,-1.2258064516129032,-0.5,-0.5,0
14,30,male,GREEK,exp,3,16,catch,no,197,mixed,j,823,win,0,32,0.7,30,0.3,10,HP-LP,f,887,HP,no-win,14_exp_3_16,21,3,HP,yes,1.5,-0.5,-0.5,1
14,30,male,GREEK,exp,3,18,exp,no,674,mixed,j,631,loss,0,71,0.7,20,0.3,30,HP-LP,f,687,HP,no-win,14_exp_3_18,14,9,HP,yes,0.43478260869565216,0.5,-0.5,1
14,30,male,GREEK,exp,3,2,exp,no,1197,mixed,j,559,win,0,682,0.8,10,0.2,20,HP-LP,f,807,HP,win,14_exp_3_2,8,4,HP,yes,0.6666666666666666,-0.5,-0.5,1
14,30,male,GREEK,exp,3,20,exp,yes,5,mixed,j,479,win,1,596,0.8,20,0.2,30,HP-LP,f,551,HP,win,14_exp_3_20,16,6,HP,yes,0.9090909090909091,-0.5,0.5,1
14,30,male,GREEK,exp,3,22,exp,yes,66,mixed,j,591,win,0,866,0.8,10,0.2,20,HP-LP,f,591,HP,win,14_exp_3_22,8,4,HP,yes,0.6666666666666666,-0.5,0.5,1
14,30,male,GREEK,exp,3,24,exp,yes,327,mixed,j,479,win,1,868,0.6,30,0.4,50,HP-LP,f,951,HP,no-win,14_exp_3_24,18,20,LP,no,-0.10526315789473684,-0.5,0.5,1
14,30,male,GREEK,exp,3,26,exp,yes,83,mixed,j,407,win,1,741,0.7,20,0.3,30,LP-HP,j,1935,HP,no-win,14_exp_3_26,14,9,HP,yes,0.43478260869565216,-0.5,0.5,1
14,30,male,GREEK,exp,3,28,exp,yes,643,mixed,j,503,loss,0,700,0.6,10,0.4,40,HP-LP,j,327,LP,no-win,14_exp_3_28,6,16,LP,yes,-0.9090909090909091,0.5,0.5,0
14,30,male,GREEK,exp,3,30,exp,yes,209,mixed,j,574,win,1,489,0.6,40,0.4,50,HP-LP,f,775,HP,no-win,14_exp_3_30,24,20,HP,yes,0.18181818181818182,-0.5,0.5,1
14,30,male,GREEK,exp,3,32,catch,no,193,mixed,f,631,win,0,361,0.8,10,0.7,50,LP-HP,f,735,LP,win,14_exp_3_32,8,35,LP,yes,-1.255813953488372,-0.5,-0.5,0
14,30,male,GREEK,exp,3,34,exp,no,29,mixed,f,527,loss,0,202,0.6,30,0.4,50,LP-HP,f,430,LP,win,14_exp_3_34,18,20,LP,yes,-0.10526315789473684,0.5,-0.5,0
14,30,male,GREEK,exp,3,36,exp,yes,62,mixed,j,454,loss,1,619,0.7,10,0.3,50,LP-HP,f,2247,LP,no-win,14_exp_3_36,7,15,LP,yes,-0.7272727272727273,0.5,0.5,0
14,30,male,GREEK,exp,3,38,exp,yes,203,mixed,j,535,win,1,480,0.7,20,0.3,30,HP-LP,f,1031,HP,no-win,14_exp_3_38,14,9,HP,yes,0.43478260869565216,-0.5,0.5,1
14,30,male,GREEK,exp,3,4,exp,no,46,mixed,j,551,loss,0,362,0.6,20,0.4,50,HP-LP,f,807,HP,win,14_exp_3_4,12,20,LP,no,-0.5,0.5,-0.5,1
14,30,male,GREEK,exp,3,40,exp,no,130,mixed,j,455,loss,0,427,0.7,10,0.3,50,HP-LP,j,303,LP,win,14_exp_3_40,7,15,LP,yes,-0.7272727272727273,0.5,-0.5,0
14,30,male,GREEK,exp,3,42,exp,no,26,mixed,f,607,loss,0,79,0.6,20,0.4,50,LP-HP,j,1199,HP,no-win,14_exp_3_42,12,20,LP,no,-0.5,0.5,-0.5,1
14,30,male,GREEK,exp,3,44,exp,yes,54,mixed,j,479,loss,1,325,0.8,20,0.2,30,HP-LP,f,679,HP,win,14_exp_3_44,16,6,HP,yes,0.9090909090909091,0.5,0.5,1
14,30,male,GREEK,exp,3,46,exp,no,38,mixed,j,335,win,0,285,0.6,10,0.4,40,LP-HP,f,903,LP,win,14_exp_3_46,6,16,LP,yes,-0.9090909090909091,-0.5,-0.5,0
14,30,male,GREEK,exp,3,48,exp,no,175,mixed,j,279,win,0,255,0.6,30,0.4,50,LP-HP,j,407,HP,win,14_exp_3_48,18,20,LP,no,-0.10526315789473684,-0.5,-0.5,1
14,30,male,GREEK,exp,3,50,exp,yes,127,mixed,f,439,win,0,1362,0.6,10,0.4,40,LP-HP,j,343,HP,no-win,14_exp_3_50,6,16,LP,no,-0.9090909090909091,-0.5,0.5,1
14,30,male,GREEK,exp,3,52,exp,no,208,mixed,f,567,win,0,1158,0.8,20,0.2,30,HP-LP,f,679,HP,win,14_exp_3_52,16,6,HP,yes,0.9090909090909091,-0.5,-0.5,1
14,30,male,GREEK,exp,3,6,catch,no,82,mixed,f,807,loss,0,207,0.6,10,0.5,50,HP-LP,j,1894,LP,win,14_exp_3_6,6,25,LP,yes,-1.2258064516129032,0.5,-0.5,0
14,30,male,GREEK,exp,3,8,catch,no,154,mixed,j,1319,loss,0,169,0.8,40,0.2,20,HP-LP,f,670,HP,win,14_exp_3_8,32,4,HP,yes,1.5555555555555556,0.5,-0.5,1
14,30,male,GREEK,exp,4,10,exp,no,2008,mixed,j,1487,win,0,1387,0.7,10,0.3,30,LP-HP,j,2639,HP,win,14_exp_4_10,7,9,LP,no,-0.25,-0.5,-0.5,1
14,30,male,GREEK,exp,4,12,exp,yes,1558,mixed,j,1615,win,0,1757,0.7,10,0.3,30,HP-LP,f,2175,HP,no-win,14_exp_4_12,7,9,LP,no,-0.25,-0.5,0.5,1
14,30,male,GREEK,exp,4,14,exp,no,4342,mixed,f,1431,loss,0,2155,0.7,30,0.3,40,HP-LP,f,2615,HP,no-win,14_exp_4_14,21,12,HP,yes,0.5454545454545454,0.5,-0.5,1
14,30,male,GREEK,exp,4,16,exp,yes,1200,mixed,f,1391,loss,0,482,0.6,40,0.4,50,HP-LP,j,7023,LP,no-win,14_exp_4_16,24,20,HP,no,0.18181818181818182,0.5,0.5,0
14,30,male,GREEK,exp,4,18,exp,no,1490,mixed,f,1263,loss,0,796,0.7,30,0.3,40,LP-HP,j,1863,HP,win,14_exp_4_18,21,12,HP,yes,0.5454545454545454,0.5,-0.5,1
14,30,male,GREEK,exp,4,2,exp,yes,30709,mixed,j,7814,win,0,2009,0.6,40,0.4,50,LP-HP,j,11958,HP,no-win,14_exp_4_2,24,20,HP,yes,0.18181818181818182,-0.5,0.5,1
14,30,male,GREEK,exp,4,20,catch,no,2300,mixed,j,1104,win,0,536,0.7,10,0.6,50,LP-HP,f,4232,LP,win,14_exp_4_20,7,30,LP,yes,-1.2432432432432432,-0.5,-0.5,0
14,30,male,GREEK,exp,4,22,exp,no,1829,mixed,j,1823,win,0,1215,0.7,30,0.3,40,HP-LP,f,2967,HP,win,14_exp_4_22,21,12,HP,yes,0.5454545454545454,-0.5,-0.5,1
14,30,male,GREEK,exp,4,24,catch,no,2069,mixed,f,1175,win,0,984,0.8,40,0.2,20,HP-LP,f,1951,HP,win,14_exp_4_24,32,4,HP,yes,1.5555555555555556,-0.5,-0.5,1
14,30,male,GREEK,exp,4,26,exp,yes,870,mixed,j,1383,loss,1,1427,0.6,30,0.4,50,LP-HP,f,8742,LP,no-win,14_exp_4_26,18,20,LP,yes,-0.10526315789473684,0.5,0.5,0
14,30,male,GREEK,exp,4,28,exp,no,748,mixed,j,935,win,0,442,0.6,10,0.4,40,HP-LP,f,4464,HP,win,14_exp_4_28,6,16,LP,no,-0.9090909090909091,-0.5,-0.5,1
14,30,male,GREEK,exp,4,30,catch,no,581,mixed,f,1223,win,0,538,0.7,30,0.3,10,LP-HP,j,1119,HP,win,14_exp_4_30,21,3,HP,yes,1.5,-0.5,-0.5,1
14,30,male,GREEK,exp,4,32,exp,no,327,mixed,f,732,loss,0,851,0.8,10,0.2,20,LP-HP,j,917,HP,win,14_exp_4_32,8,4,HP,yes,0.6666666666666666,0.5,-0.5,1
14,30,male,GREEK,exp,4,34,catch,no,486,mixed,j,759,win,0,953,0.6,10,0.5,50,LP-HP,f,5007,LP,win,14_exp_4_34,6,25,LP,yes,-1.2258064516129032,-0.5,-0.5,0
14,30,male,GREEK,exp,4,36,exp,yes,3433,mixed,j,1231,win,0,1312,0.8,20,0.2,30,LP-HP,j,1983,HP,win,14_exp_4_36,16,6,HP,yes,0.9090909090909091,-0.5,0.5,1
14,30,male,GREEK,exp,4,38,exp,yes,4108,mixed,j,807,win,0,975,0.6,20,0.4,50,LP-HP,j,1103,HP,win,14_exp_4_38,12,20,LP,no,-0.5,-0.5,0.5,1
14,30,male,GREEK,exp,4,4,exp,yes,714,mixed,f,2375,loss,0,2700,0.7,10,0.3,30,HP-LP,j,1975,LP,no-win,14_exp_4_4,7,9,LP,yes,-0.25,0.5,0.5,0
14,30,male,GREEK,exp,4,40,exp,yes,860,mixed,f,623,loss,0,525,0.7,20,0.3,30,HP-LP,f,1142,HP,win,14_exp_4_40,14,9,HP,yes,0.43478260869565216,0.5,0.5,1
14,30,male,GREEK,exp,4,42,exp,yes,765,mixed,j,711,loss,0,775,0.8,20,0.2,30,LP-HP,j,895,HP,win,14_exp_4_42,16,6,HP,yes,0.9090909090909091,0.5,0.5,1
14,30,male,GREEK,exp,4,44,catch,no,4822,mixed,j,855,loss,0,901,0.6,10,0.5,50,LP-HP,f,2454,LP,no-win,14_exp_4_44,6,25,LP,yes,-1.2258064516129032,0.5,-0.5,0
14,30,male,GREEK,exp,4,46,catch,no,396,mixed,j,615,loss,0,675,0.7,30,0.3,10,HP-LP,f,952,HP,win,14_exp_4_46,21,3,HP,yes,1.5,0.5,-0.5,1
14,30,male,GREEK,exp,4,48,exp,no,669,mixed,j,711,loss,0,853,0.7,10,0.3,50,LP-HP,j,783,HP,win,14_exp_4_48,7,15,LP,no,-0.7272727272727273,0.5,-0.5,1
14,30,male,GREEK,exp,4,50,exp,yes,348,mixed,f,743,win,1,1036,0.6,20,0.4,50,HP-LP,j,2720,LP,no-win,14_exp_4_50,12,20,LP,yes,-0.5,-0.5,0.5,0
14,30,male,GREEK,exp,4,52,exp,no,1388,mixed,f,623,win,0,2545,0.8,20,0.2,30,LP-HP,j,1903,HP,win,14_exp_4_52,16,6,HP,yes,0.9090909090909091,-0.5,-0.5,1
14,30,male,GREEK,exp,4,6,exp,no,2808,mixed,f,2111,loss,0,1196,0.8,10,0.2,20,HP-LP,f,5335,HP,win,14_exp_4_6,8,4,HP,yes,0.6666666666666666,0.5,-0.5,1
14,30,male,GREEK,exp,4,8,exp,yes,5736,mixed,f,2470,win,0,1977,0.7,10,0.3,50,HP-LP,f,16679,HP,win,14_exp_4_8,7,15,LP,no,-0.7272727272727273,-0.5,0.5,1
14,30,male,GREEK,exp,5,10,catch,no,604,mixed,f,502,win,0,889,0.8,50,0.2,30,LP-HP,j,703,HP,win,14_exp_5_10,40,6,HP,yes,1.4782608695652173,-0.5,-0.5,1
14,30,male,GREEK,exp,5,12,exp,no,455,mixed,f,551,win,0,391,0.7,10,0.3,50,HP-LP,j,383,LP,win,14_exp_5_12,7,15,LP,yes,-0.7272727272727273,-0.5,-0.5,0
14,30,male,GREEK,exp,5,14,exp,yes,936,mixed,f,559,loss,0,353,0.6,20,0.4,50,LP-HP,j,863,HP,win,14_exp_5_14,12,20,LP,no,-0.5,0.5,0.5,1
14,30,male,GREEK,exp,5,16,exp,yes,1456,mixed,f,679,loss,0,1105,0.7,10,0.3,30,LP-HP,j,912,HP,win,14_exp_5_16,7,9,LP,no,-0.25,0.5,0.5,1
14,30,male,GREEK,exp,5,18,exp,no,883,mixed,f,479,loss,0,731,0.6,10,0.4,40,HP-LP,f,967,HP,win,14_exp_5_18,6,16,LP,no,-0.9090909090909091,0.5,-0.5,1
14,30,male,GREEK,exp,5,2,catch,no,1461,mixed,f,3255,loss,0,587,0.7,30,0.3,10,LP-HP,j,711,HP,win,14_exp_5_2,21,3,HP,yes,1.5,0.5,-0.5,1
14,30,male,GREEK,exp,5,20,exp,no,574,mixed,j,679,loss,0,664,0.7,10,0.3,30,HP-LP,f,639,HP,win,14_exp_5_20,7,9,LP,no,-0.25,0.5,-0.5,1
14,30,male,GREEK,exp,5,22,exp,no,693,mixed,j,527,loss,0,616,0.6,40,0.4,50,LP-HP,j,830,HP,no-win,14_exp_5_22,24,20,HP,yes,0.18181818181818182,0.5,-0.5,1
14,30,male,GREEK,exp,5,24,exp,yes,423,mixed,f,575,win,0,1041,0.6,30,0.4,50,LP-HP,j,903,HP,win,14_exp_5_24,18,20,LP,no,-0.10526315789473684,-0.5,0.5,1
14,30,male,GREEK,exp,5,26,catch,no,683,mixed,f,585,loss,0,495,0.8,50,0.2,30,HP-LP,f,791,HP,win,14_exp_5_26,40,6,HP,yes,1.4782608695652173,0.5,-0.5,1
14,30,male,GREEK,exp,5,28,exp,no,533,mixed,j,535,loss,0,599,0.6,30,0.4,50,HP-LP,f,767,HP,no-win,14_exp_5_28,18,20,LP,no,-0.10526315789473684,0.5,-0.5,1
14,30,male,GREEK,exp,5,30,catch,no,422,mixed,j,503,loss,0,935,0.7,10,0.6,50,LP-HP,f,342,LP,no-win,14_exp_5_30,7,30,LP,yes,-1.2432432432432432,0.5,-0.5,0
14,30,male,GREEK,exp,5,32,exp,no,511,mixed,j,479,loss,0,385,0.7,20,0.3,30,LP-HP,j,1055,HP,win,14_exp_5_32,14,9,HP,yes,0.43478260869565216,0.5,-0.5,1
14,30,male,GREEK,exp,5,34,exp,no,431,mixed,f,543,win,0,447,0.6,20,0.4,50,HP-LP,f,871,HP,win,14_exp_5_34,12,20,LP,no,-0.5,-0.5,-0.5,1
14,30,male,GREEK,exp,5,36,exp,no,301,mixed,j,454,win,0,303,0.6,20,0.4,50,LP-HP,j,991,HP,win,14_exp_5_36,12,20,LP,no,-0.5,-0.5,-0.5,1
14,30,male,GREEK,exp,5,38,exp,yes,431,mixed,f,439,win,1,1336,0.7,10,0.3,50,LP-HP,j,879,HP,win,14_exp_5_38,7,15,LP,no,-0.7272727272727273,-0.5,0.5,1
14,30,male,GREEK,exp,5,4,exp,yes,1070,mixed,f,575,win,0,822,0.6,10,0.4,40,HP-LP,f,1311,HP,no-win,14_exp_5_4,6,16,LP,no,-0.9090909090909091,-0.5,0.5,1
14,30,male,GREEK,exp,5,40,exp,no,487,mixed,f,535,win,0,400,0.8,10,0.2,20,LP-HP,j,671,HP,win,14_exp_5_40,8,4,HP,yes,0.6666666666666666,-0.5,-0.5,1
14,30,male,GREEK,exp,5,42,exp,no,351,mixed,j,735,loss,0,1662,0.8,20,0.2,30,HP-LP,f,968,HP,no-win,14_exp_5_42,16,6,HP,yes,0.9090909090909091,0.5,-0.5,1
14,30,male,GREEK,exp,5,44,catch,no,765,mixed,j,608,loss,0,407,0.8,50,0.2,30,LP-HP,j,687,HP,win,14_exp_5_44,40,6,HP,yes,1.4782608695652173,0.5,-0.5,1
14,30,male,GREEK,exp,5,46,exp,yes,442,mixed,f,455,loss,0,927,0.8,10,0.2,20,LP-HP,j,663,HP,win,14_exp_5_46,8,4,HP,yes,0.6666666666666666,0.5,0.5,1
14,30,male,GREEK,exp,5,48,exp,no,438,mixed,f,488,loss,0,640,0.6,10,0.4,40,LP-HP,j,302,HP,win,14_exp_5_48,6,16,LP,no,-0.9090909090909091,0.5,-0.5,1
14,30,male,GREEK,exp,5,50,exp,no,584,mixed,j,511,win,0,345,0.7,30,0.3,40,LP-HP,j,759,HP,no-win,14_exp_5_50,21,12,HP,yes,0.5454545454545454,-0.5,-0.5,1
14,30,male,GREEK,exp,5,52,catch,no,487,mixed,f,559,win,0,416,0.8,10,0.7,50,HP-LP,j,359,LP,win,14_exp_5_52,8,35,LP,yes,-1.255813953488372,-0.5,-0.5,0
14,30,male,GREEK,exp,5,6,exp,yes,881,mixed,j,799,loss,0,6215,0.6,20,0.4,50,HP-LP,f,1119,HP,win,14_exp_5_6,12,20,LP,no,-0.5,0.5,0.5,1
14,30,male,GREEK,exp,5,8,exp,yes,894,mixed,j,671,loss,0,640,0.6,10,0.4,40,LP-HP,j,775,HP,win,14_exp_5_8,6,16,LP,no,-0.9090909090909091,0.5,0.5,1
14,30,male,GREEK,exp,6,10,catch,no,773,mixed,f,639,loss,0,1342,0.8,10,0.7,50,LP-HP,f,1894,LP,no-win,14_exp_6_10,8,35,LP,yes,-1.255813953488372,0.5,-0.5,0
14,30,male,GREEK,exp,6,12,catch,no,2724,mixed,j,647,loss,0,2579,0.8,40,0.2,20,LP-HP,j,1247,HP,win,14_exp_6_12,32,4,HP,yes,1.5555555555555556,0.5,-0.5,1
14,30,male,GREEK,exp,6,14,exp,no,1120,mixed,j,688,win,0,1661,0.7,20,0.3,30,HP-LP,f,1126,HP,win,14_exp_6_14,14,9,HP,yes,0.43478260869565216,-0.5,-0.5,1
14,30,male,GREEK,exp,6,16,exp,yes,990,mixed,f,1047,loss,0,1185,0.7,10,0.3,50,HP-LP,f,1247,HP,win,14_exp_6_16,7,15,LP,no,-0.7272727272727273,0.5,0.5,1
14,30,male,GREEK,exp,6,18,exp,yes,664,mixed,j,839,win,0,1973,0.8,10,0.2,20,LP-HP,j,687,HP,win,14_exp_6_18,8,4,HP,yes,0.6666666666666666,-0.5,0.5,1
14,30,male,GREEK,exp,6,2,exp,yes,757,mixed,f,544,loss,0,452,0.6,30,0.4,50,HP-LP,j,2007,LP,win,14_exp_6_2,18,20,LP,yes,-0.10526315789473684,0.5,0.5,0
14,30,male,GREEK,exp,6,20,exp,yes,520,mixed,j,639,loss,0,809,0.7,30,0.3,40,LP-HP,j,766,HP,no-win,14_exp_6_20,21,12,HP,yes,0.5454545454545454,0.5,0.5,1
14,30,male,GREEK,exp,6,22,catch,no,870,mixed,f,535,loss,0,405,0.7,10,0.6,50,HP-LP,j,471,LP,no-win,14_exp_6_22,7,30,LP,yes,-1.2432432432432432,0.5,-0.5,0
14,30,male,GREEK,exp,6,24,exp,no,517,mixed,f,488,win,0,847,0.6,40,0.4,50,HP-LP,f,919,HP,win,14_exp_6_24,24,20,HP,yes,0.18181818181818182,-0.5,-0.5,1
14,30,male,GREEK,exp,6,26,exp,no,792,mixed,j,591,win,0,32,0.7,20,0.3,30,LP-HP,j,1031,HP,win,14_exp_6_26,14,9,HP,yes,0.43478260869565216,-0.5,-0.5,1
14,30,male,GREEK,exp,6,28,exp,yes,846,mixed,j,623,loss,0,896,0.8,10,0.2,20,HP-LP,f,854,HP,win,14_exp_6_28,8,4,HP,yes,0.6666666666666666,0.5,0.5,1
14,30,male,GREEK,exp,6,30,exp,no,768,mixed,j,815,loss,0,1615,0.7,10,0.3,30,LP-HP,f,423,LP,no-win,14_exp_6_30,7,9,LP,yes,-0.25,0.5,-0.5,0
14,30,male,GREEK,exp,6,32,catch,no,2528,mixed,j,599,win,0,1358,0.8,40,0.2,20,LP-HP,j,647,HP,win,14_exp_6_32,32,4,HP,yes,1.5555555555555556,-0.5,-0.5,1
14,30,male,GREEK,exp,6,34,exp,no,679,mixed,j,598,win,0,720,0.6,40,0.4,50,LP-HP,j,1487,HP,no-win,14_exp_6_34,24,20,HP,yes,0.18181818181818182,-0.5,-0.5,1
14,30,male,GREEK,exp,6,36,exp,no,824,mixed,j,767,win,0,2795,0.6,30,0.4,50,HP-LP,f,1071,HP,win,14_exp_6_36,18,20,LP,no,-0.10526315789473684,-0.5,-0.5,1
14,30,male,GREEK,exp,6,38,exp,yes,424,mixed,j,431,loss,0,1888,0.7,20,0.3,30,LP-HP,j,943,HP,win,14_exp_6_38,14,9,HP,yes,0.43478260869565216,0.5,0.5,1
14,30,male,GREEK,exp,6,4,exp,no,462,mixed,j,823,loss,0,558,0.8,20,0.2,30,LP-HP,j,655,HP,win,14_exp_6_4,16,6,HP,yes,0.9090909090909091,0.5,-0.5,1
14,30,male,GREEK,exp,6,40,exp,yes,2342,mixed,f,911,win,0,899,0.7,10,0.3,30,LP-HP,j,840,HP,win,14_exp_6_40,7,9,LP,no,-0.25,-0.5,0.5,1
14,30,male,GREEK,exp,6,42,exp,no,662,mixed,j,695,win,0,2837,0.7,10,0.3,30,HP-LP,f,639,HP,no-win,14_exp_6_42,7,9,LP,no,-0.25,-0.5,-0.5,1
14,30,male,GREEK,exp,6,44,exp,yes,1161,mixed,j,647,win,0,688,0.7,30,0.3,40,HP-LP,f,695,HP,no-win,14_exp_6_44,21,12,HP,yes,0.5454545454545454,-0.5,0.5,1
14,30,male,GREEK,exp,6,46,catch,no,517,mixed,f,583,win,0,767,0.7,10,0.6,50,HP-LP,f,1327,HP,win,14_exp_6_46,7,30,LP,no,-1.2432432432432432,-0.5,-0.5,1
14,30,male,GREEK,exp,6,48,exp,no,563,mixed,j,399,win,0,391,0.7,10,0.3,50,LP-HP,f,383,LP,no-win,14_exp_6_48,7,15,LP,yes,-0.7272727272727273,-0.5,-0.5,0
14,30,male,GREEK,exp,6,50,exp,no,535,mixed,j,591,loss,0,552,0.6,40,0.4,50,HP-LP,f,911,HP,no-win,14_exp_6_50,24,20,HP,yes,0.18181818181818182,0.5,-0.5,1
14,30,male,GREEK,exp,6,52,exp,yes,477,mixed,j,446,win,0,818,0.7,30,0.3,40,LP-HP,j,719,HP,win,14_exp_6_52,21,12,HP,yes,0.5454545454545454,-0.5,0.5,1
14,30,male,GREEK,exp,6,6,exp,yes,642,mixed,f,551,loss,1,769,0.7,30,0.3,40,HP-LP,f,887,HP,win,14_exp_6_6,21,12,HP,yes,0.5454545454545454,0.5,0.5,1
14,30,male,GREEK,exp,6,8,catch,no,21089,mixed,f,4575,loss,0,4778,0.8,10,0.7,50,HP-LP,j,1590,LP,win,14_exp_6_8,8,35,LP,yes,-1.255813953488372,0.5,-0.5,0
15,23,male,Polish,exp,3,10,exp,yes,658,mixed,f,656,loss,0,591,0.7,10,0.3,50,LP-HP,j,1022,HP,win,15_exp_3_10,7,15,LP,no,-0.7272727272727273,0.5,0.5,1
15,23,male,Polish,exp,3,12,exp,no,236,mixed,j,650,win,0,357,0.8,10,0.2,20,LP-HP,j,987,HP,win,15_exp_3_12,8,4,HP,yes,0.6666666666666666,-0.5,-0.5,1
15,23,male,Polish,exp,3,14,exp,no,402,mixed,f,838,loss,0,407,0.8,10,0.2,20,LP-HP,j,685,HP,win,15_exp_3_14,8,4,HP,yes,0.6666666666666666,0.5,-0.5,1
15,23,male,Polish,exp,3,16,exp,yes,423,mixed,j,632,win,0,434,0.6,20,0.4,50,HP-LP,j,877,LP,win,15_exp_3_16,12,20,LP,yes,-0.5,-0.5,0.5,0
15,23,male,Polish,exp,3,18,catch,no,238,mixed,j,599,loss,0,521,0.7,30,0.3,10,HP-LP,f,941,HP,win,15_exp_3_18,21,3,HP,yes,1.5,0.5,-0.5,1
15,23,male,Polish,exp,3,2,exp,no,1197,mixed,j,713,loss,0,442,0.6,20,0.4,50,LP-HP,j,176,HP,win,15_exp_3_2,12,20,LP,no,-0.5,0.5,-0.5,1
15,23,male,Polish,exp,3,20,exp,yes,221,mixed,j,564,loss,0,613,0.7,30,0.3,40,HP-LP,f,793,HP,win,15_exp_3_20,21,12,HP,yes,0.5454545454545454,0.5,0.5,1
15,23,male,Polish,exp,3,22,exp,yes,419,mixed,j,651,loss,0,499,0.6,10,0.4,40,HP-LP,j,787,LP,no-win,15_exp_3_22,6,16,LP,yes,-0.9090909090909091,0.5,0.5,0
15,23,male,Polish,exp,3,24,exp,no,377,mixed,j,588,win,0,365,0.7,10,0.3,50,HP-LP,j,1158,LP,no-win,15_exp_3_24,7,15,LP,yes,-0.7272727272727273,-0.5,-0.5,0
15,23,male,Polish,exp,3,26,catch,no,295,mixed,j,616,loss,0,228,0.8,40,0.2,20,LP-HP,j,771,HP,win,15_exp_3_26,32,4,HP,yes,1.5555555555555556,0.5,-0.5,1
15,23,male,Polish,exp,3,28,exp,no,349,mixed,j,531,loss,0,236,0.7,20,0.3,30,LP-HP,j,925,HP,no-win,15_exp_3_28,14,9,HP,yes,0.43478260869565216,0.5,-0.5,1
15,23,male,Polish,exp,3,30,exp,no,343,mixed,f,599,win,0,18,0.8,20,0.2,30,LP-HP,j,947,HP,win,15_exp_3_30,16,6,HP,yes,0.9090909090909091,-0.5,-0.5,1
15,23,male,Polish,exp,3,32,catch,no,323,mixed,j,514,loss,0,216,0.7,10,0.6,50,LP-HP,f,730,LP,no-win,15_exp_3_32,7,30,LP,yes,-1.2432432432432432,0.5,-0.5,0
15,23,male,Polish,exp,3,34,catch,no,341,mixed,j,662,win,0,285,0.8,40,0.2,20,LP-HP,j,599,HP,win,15_exp_3_34,32,4,HP,yes,1.5555555555555556,-0.5,-0.5,1
15,23,male,Polish,exp,3,36,exp,no,315,mixed,f,742,loss,0,285,0.8,20,0.2,30,LP-HP,j,668,HP,win,15_exp_3_36,16,6,HP,yes,0.9090909090909091,0.5,-0.5,1
15,23,male,Polish,exp,3,38,exp,no,474,mixed,f,552,loss,0,247,0.7,10,0.3,50,LP-HP,f,1124,LP,win,15_exp_3_38,7,15,LP,yes,-0.7272727272727273,0.5,-0.5,0
15,23,male,Polish,exp,3,4,exp,yes,384,mixed,f,639,loss,1,256,0.6,10,0.4,40,LP-HP,f,913,LP,no-win,15_exp_3_4,6,16,LP,yes,-0.9090909090909091,0.5,0.5,0
15,23,male,Polish,exp,3,40,exp,yes,287,mixed,f,708,win,1,252,0.7,10,0.3,30,LP-HP,j,1119,HP,no-win,15_exp_3_40,7,9,LP,no,-0.25,-0.5,0.5,1
15,23,male,Polish,exp,3,42,exp,yes,242,mixed,f,827,win,1,428,0.7,30,0.3,40,HP-LP,f,964,HP,win,15_exp_3_42,21,12,HP,yes,0.5454545454545454,-0.5,0.5,1
15,23,male,Polish,exp,3,44,exp,no,908,mixed,j,1090,loss,0,716,0.6,20,0.4,50,HP-LP,j,1678,LP,no-win,15_exp_3_44,12,20,LP,yes,-0.5,0.5,-0.5,0
15,23,male,Polish,exp,3,46,exp,yes,149,mixed,f,895,loss,1,481,0.7,10,0.3,30,HP-LP,j,907,LP,no-win,15_exp_3_46,7,9,LP,yes,-0.25,0.5,0.5,0
15,23,male,Polish,exp,3,48,exp,yes,41,mixed,j,668,loss,0,649,0.8,20,0.2,30,LP-HP,j,1209,HP,win,15_exp_3_48,16,6,HP,yes,0.9090909090909091,0.5,0.5,1
15,23,male,Polish,exp,3,50,exp,no,436,mixed,f,748,win,0,788,0.7,30,0.3,40,LP-HP,j,764,HP,win,15_exp_3_50,21,12,HP,yes,0.5454545454545454,-0.5,-0.5,1
15,23,male,Polish,exp,3,52,catch,no,763,mixed,f,502,loss,0,837,0.8,50,0.2,30,HP-LP,f,856,HP,win,15_exp_3_52,40,6,HP,yes,1.4782608695652173,0.5,-0.5,1
15,23,male,Polish,exp,3,6,exp,yes,388,mixed,j,662,win,0,649,0.7,10,0.3,30,HP-LP,f,936,HP,win,15_exp_3_6,7,9,LP,no,-0.25,-0.5,0.5,1
15,23,male,Polish,exp,3,8,catch,no,483,mixed,f,689,win,0,490,0.7,10,0.6,50,HP-LP,j,958,LP,no-win,15_exp_3_8,7,30,LP,yes,-1.2432432432432432,-0.5,-0.5,0
15,23,male,Polish,exp,4,10,exp,yes,521,mixed,f,1193,win,1,454,0.8,20,0.2,30,LP-HP,j,4833,HP,win,15_exp_4_10,16,6,HP,yes,0.9090909090909091,-0.5,0.5,1
15,23,male,Polish,exp,4,12,exp,no,6707,mixed,j,2134,loss,0,2334,0.6,40,0.4,50,HP-LP,f,946,HP,win,15_exp_4_12,24,20,HP,yes,0.18181818181818182,0.5,-0.5,1
15,23,male,Polish,exp,4,14,exp,yes,6075,mixed,f,1061,win,1,3645,0.8,10,0.2,20,LP-HP,j,2579,HP,win,15_exp_4_14,8,4,HP,yes,0.6666666666666666,-0.5,0.5,1
15,23,male,Polish,exp,4,16,exp,yes,476,mixed,f,656,win,0,446,0.6,30,0.4,50,HP-LP,j,1951,LP,no-win,15_exp_4_16,18,20,LP,yes,-0.10526315789473684,-0.5,0.5,0
15,23,male,Polish,exp,4,18,exp,yes,301,mixed,f,765,win,1,542,0.8,20,0.2,30,HP-LP,f,667,HP,win,15_exp_4_18,16,6,HP,yes,0.9090909090909091,-0.5,0.5,1
15,23,male,Polish,exp,4,2,exp,yes,575,mixed,j,434,win,2,313,0.8,10,0.2,20,HP-LP,f,1039,HP,no-win,15_exp_4_2,8,4,HP,yes,0.6666666666666666,-0.5,0.5,1
15,23,male,Polish,exp,4,20,exp,yes,2053,mixed,j,651,win,1,730,0.6,40,0.4,50,HP-LP,f,856,HP,no-win,15_exp_4_20,24,20,HP,yes,0.18181818181818182,-0.5,0.5,1
15,23,male,Polish,exp,4,22,catch,no,502,mixed,j,1090,loss,0,1473,0.6,10,0.5,50,LP-HP,f,896,LP,win,15_exp_4_22,6,25,LP,yes,-1.2258064516129032,0.5,-0.5,0
15,23,male,Polish,exp,4,24,exp,no,646,mixed,f,742,win,0,643,0.8,20,0.2,30,HP-LP,f,1381,HP,win,15_exp_4_24,16,6,HP,yes,0.9090909090909091,-0.5,-0.5,1
15,23,male,Polish,exp,4,26,exp,yes,516,mixed,j,552,loss,1,293,0.7,10,0.3,30,LP-HP,j,782,HP,no-win,15_exp_4_26,7,9,LP,no,-0.25,0.5,0.5,1
15,23,male,Polish,exp,4,28,exp,no,352,mixed,j,142,loss,0,361,0.6,30,0.4,50,HP-LP,f,793,HP,win,15_exp_4_28,18,20,LP,no,-0.10526315789473684,0.5,-0.5,1
15,23,male,Polish,exp,4,30,catch,no,349,mixed,j,542,loss,0,295,0.8,50,0.2,30,LP-HP,j,628,HP,win,15_exp_4_30,40,6,HP,yes,1.4782608695652173,0.5,-0.5,1
15,23,male,Polish,exp,4,32,catch,no,240,mixed,j,542,win,0,386,0.8,10,0.7,50,HP-LP,j,569,LP,win,15_exp_4_32,8,35,LP,yes,-1.255813953488372,-0.5,-0.5,0
15,23,male,Polish,exp,4,34,exp,yes,267,mixed,f,519,win,1,589,0.6,10,0.4,40,LP-HP,f,752,LP,no-win,15_exp_4_34,6,16,LP,yes,-0.9090909090909091,-0.5,0.5,0
15,23,male,Polish,exp,4,36,exp,yes,84,mixed,f,627,win,0,938,0.6,30,0.4,50,LP-HP,f,1478,LP,no-win,15_exp_4_36,18,20,LP,yes,-0.10526315789473684,-0.5,0.5,0
15,23,male,Polish,exp,4,38,exp,no,300,mixed,j,508,win,0,392,0.6,10,0.4,40,LP-HP,f,1244,LP,win,15_exp_4_38,6,16,LP,yes,-0.9090909090909091,-0.5,-0.5,0
15,23,male,Polish,exp,4,4,catch,no,924,mixed,j,1199,win,0,832,0.7,30,0.3,10,HP-LP,f,1045,HP,win,15_exp_4_4,21,3,HP,yes,1.5,-0.5,-0.5,1
