subject_ID, age, gender, nationality, task, trial_number, trial_condition, game1_outcome, delay, game1_color_front, game1_color_back, game1_startRT, game1_respKey, game1_respRT, premature_game1_start, premature_game1_choice, premature_game1_outcome, game2_G_amount, game2_G_prob, game2_NG_amount, game2_pos, game2_startRT, game2_respKey, game2_respRT, game2_gambled, game2_outcome, game2_outcome_amount,premature_game2_start, premature_game2_delay, premature_game2_choice, premature_game2_outcome, time_elapsed
test,100,I don't want to say,anywhere,guessing,1,experimental,neutral,yes,yellow,yellow,1000.3999999761581,j,720.7000000476837,0,0,0,90,0.3333333333333333,30,g-left-ng-right,478.7000000476837,f,1396.1999999284744,yes,loss,0,0,0,0,0,160338
test,100,I don't want to say,anywhere,guessing,2,experimental,loss,no,mixed,blue,328.2999999523163,j,693,0,0,0,75,0.6666666666666666,50,ng-left-g-right,351.10000002384186,j,1096,yes,loss,0,0,0,0,0,166103
test,100,I don't want to say,anywhere,guessing,3,experimental,loss,yes,mixed,yellow,426.6999999284744,f,1042.1000000238419,0,0,0,200,0.25,50,g-left-ng-right,382.39999997615814,f,1255.5,yes,win,200,0,0,0,0,177463
test,100,I don't want to say,anywhere,guessing,4,experimental,neutral,no,yellow,yellow,275.6999999284744,j,605.7999999523163,0,0,0,80,0.25,20,ng-left-g-right,574.1000000238419,j,990.5,yes,win,80,0,0,0,0,183207
test,100,I don't want to say,anywhere,guessing,5,experimental,loss,no,mixed,yellow,289.2000000476837,f,959.8999999761581,0,0,0,200,0.25,50,g-left-ng-right,423.10000002384186,f,2033.1000000238419,yes,loss,0,0,0,0,0,190206
test,100,I don't want to say,anywhere,guessing,6,experimental,loss,yes,mixed,blue,689.7999999523163,j,1493.3999999761581,0,0,0,30,0.6666666666666666,20,g-left-ng-right,413,f,1181.6999999284744,yes,win,30,0,0,0,0,202219
test,100,I don't want to say,anywhere,guessing,7,experimental,neutral,no,blue,blue,572.2999999523163,f,769.3999999761581,0,0,0,45,0.6666666666666666,30,g-left-ng-right,416.7000000476837,f,1305.3999999761581,yes,win,45,0,0,0,0,208569
test,100,I don't want to say,anywhere,guessing,8,experimental,neutral,yes,yellow,yellow,283.5,j,654.8999999761581,0,0,0,120,0.5,60,ng-left-g-right,489.5,j,903.5,yes,loss,0,0,0,0,0,219136
test,100,I don't want to say,anywhere,guessing,9,experimental,neutral,yes,yellow,yellow,323.7000000476837,j,875.5,0,0,0,100,0.5,50,g-left-ng-right,440.10000002384186,f,666.8999999761581,yes,win,100,0,0,0,0,229688
test,100,I don't want to say,anywhere,guessing,10,experimental,loss,yes,mixed,blue,281,j,1020.7999999523163,0,0,0,120,0.5,60,g-left-ng-right,1056.6000000238419,f,841.3999999761581,yes,loss,0,0,0,0,0,241129
test,100,I don't want to say,anywhere,guessing,11,experimental,loss,no,mixed,blue,375.7999999523163,j,658.2999999523163,0,0,0,240,0.25,60,g-left-ng-right,442.39999997615814,f,1760,yes,loss,0,0,0,0,0,247653
test,100,I don't want to say,anywhere,guessing,12,experimental,loss,no,mixed,blue,384.10000002384186,j,1092.3999999761581,0,0,0,90,0.3333333333333333,30,g-left-ng-right,362.39999997615814,f,1047.1000000238419,yes,loss,0,0,0,0,0,253829
test,100,I don't want to say,anywhere,guessing,13,experimental,loss,yes,mixed,blue,609.8999999761581,j,1145.2999999523163,0,0,0,180,0.3333333333333333,60,ng-left-g-right,439.60000002384186,j,1781.7999999523163,yes,loss,0,0,0,0,0,266042
test,100,I don't want to say,anywhere,guessing,14,experimental,neutral,yes,blue,blue,356.7000000476837,f,805.4000000953674,0,0,0,180,0.3333333333333333,60,g-left-ng-right,384.7000000476837,f,942.0999999046326,yes,win,180,0,0,0,0,276767
test,100,I don't want to say,anywhere,guessing,15,experimental,neutral,yes,yellow,yellow,414.5,j,924.5,0,0,0,75,0.6666666666666666,50,ng-left-g-right,447.10000002384186,j,962.8999999761581,yes,loss,0,0,0,0,0,287759
test,100,I don't want to say,anywhere,guessing,16,experimental,neutral,no,blue,blue,468.7999999523163,f,871.2999999523163,0,0,0,120,0.25,30,ng-left-g-right,382.10000002384186,j,1014,yes,win,120,0,0,0,0,293780
test,100,I don't want to say,anywhere,guessing,17,experimental,neutral,yes,blue,blue,298.8000000715256,f,908.4000000953674,0,0,0,80,0.5,40,g-left-ng-right,408.7999999523163,f,853.2000000476837,yes,loss,0,0,0,0,0,304489
test,100,I don't want to say,anywhere,guessing,18,experimental,win,no,mixed,yellow,356.60000002384186,j,955.7000000476837,0,0,0,100,0.5,50,g-left-ng-right,417.7000000476837,f,1373.1000000238419,yes,win,100,0,0,0,0,310883
test,100,I don't want to say,anywhere,guessing,19,experimental,loss,no,mixed,blue,267.6999999284744,j,1427.2000000476837,0,0,0,40,0.5,20,g-left-ng-right,467.6999999284744,f,1343,yes,loss,0,0,0,0,0,317675
test,100,I don't want to say,anywhere,guessing,20,experimental,loss,no,mixed,yellow,417.60000002384186,f,1435.1000000238419,0,0,0,80,0.25,20,ng-left-g-right,456,f,1190,no,neutral,20,0,0,0,0,324462
test,100,I don't want to say,anywhere,guessing,21,experimental,win,yes,mixed,yellow,360.1999999284744,j,1210,0,0,0,40,0.5,20,ng-left-g-right,351.2999999523163,j,1394.7999999523163,yes,win,40,0,3,0,0,336013
test,100,I don't want to say,anywhere,guessing,22,experimental,win,no,mixed,yellow,480.2000000476837,j,1833,0,1,0,80,0.25,20,g-left-ng-right,442.8000000715256,f,1272.5,yes,loss,0,0,0,0,0,343330
test,100,I don't want to say,anywhere,guessing,23,experimental,neutral,yes,blue,blue,253.29999995231628,f,720.2999999523163,0,0,0,160,0.25,40,g-left-ng-right,429.6999999284744,f,1417.7999999523163,yes,loss,0,0,0,0,0,354392
test,100,I don't want to say,anywhere,guessing,24,experimental,neutral,no,yellow,yellow,444.89999997615814,j,944.8999999761581,0,0,0,30,0.6666666666666666,20,g-left-ng-right,549.2000000476837,f,928,yes,win,30,0,0,0,0,360540
test,100,I don't want to say,anywhere,guessing,25,catch,loss,no,mixed,yellow,287.39999997615814,f,853.2000000476837,0,0,0,45,0.6666666666666666,75,ng-left-g-right,437.2999999523163,f,1896.6000000238419,no,neutral,75,0,0,0,0,367298
test,100,I don't want to say,anywhere,guessing,26,experimental,neutral,no,blue,blue,304.8000000715256,f,964,0,0,0,100,0.5,50,ng-left-g-right,906.6999999284744,j,1364.5,yes,win,100,0,0,0,0,374130
test,100,I don't want to say,anywhere,guessing,27,experimental,loss,yes,mixed,blue,379.10000002384186,j,783.0999999046326,0,0,0,120,0.25,30,ng-left-g-right,517.7000000476837,f,1822.9000000953674,no,neutral,30,0,0,0,0,385874
test,100,I don't want to say,anywhere,guessing,28,experimental,loss,no,mixed,blue,303.6999999284744,j,1311.3999999761581,0,0,0,60,0.3333333333333333,20,ng-left-g-right,604,j,1822.3000000715256,yes,loss,0,0,0,0,0,393207
test,100,I don't want to say,anywhere,guessing,29,experimental,loss,yes,mixed,yellow,508.10000002384186,f,859.8000000715256,0,0,0,60,0.6666666666666666,40,ng-left-g-right,410.10000002384186,j,891.5,yes,win,60,0,3,0,0,404119
test,100,I don't want to say,anywhere,guessing,30,experimental,loss,yes,mixed,blue,342.40000009536743,j,927.7000000476837,0,0,0,80,0.5,40,g-left-ng-right,435.10000002384186,f,1328.1000000238419,yes,loss,0,0,0,0,0,415390
test,100,I don't want to say,anywhere,guessing,31,experimental,loss,no,mixed,blue,300.2999999523163,j,961.7999999523163,0,0,0,45,0.6666666666666666,30,ng-left-g-right,1228.2000000476837,j,1222.1000000238419,yes,loss,0,0,0,0,0,422390
test,100,I don't want to say,anywhere,guessing,32,experimental,win,yes,mixed,yellow,672.4000000953674,j,1178.2999999523163,0,0,0,120,0.3333333333333333,40,ng-left-g-right,749.1000000238419,j,2655.7000000476837,yes,loss,0,0,0,0,0,435888
test,100,I don't want to say,anywhere,guessing,33,experimental,neutral,yes,yellow,yellow,525.8999999761581,j,1172.2000000476837,0,0,0,60,0.5,30,ng-left-g-right,345.60000002384186,j,1432.1000000238419,yes,loss,0,0,0,0,0,447604
test,100,I don't want to say,anywhere,guessing,34,experimental,win,yes,mixed,blue,604.1000000238419,f,1615.7000000476837,0,0,0,60,0.6666666666666666,40,g-left-ng-right,912.8999999761581,f,1118.3999999761581,yes,win,60,0,0,0,0,460096
test,100,I don't want to say,anywhere,guessing,35,experimental,loss,no,mixed,blue,288.10000002384186,j,997.3999999761581,0,0,0,120,0.3333333333333333,40,g-left-ng-right,432.7000000476837,f,1713.0999999046326,yes,win,120,0,0,0,0,466816
test,100,I don't want to say,anywhere,guessing,36,experimental,neutral,no,yellow,yellow,322.39999997615814,j,822.0999999046326,0,0,0,240,0.25,60,ng-left-g-right,377.39999997615814,j,1547.2999999523163,yes,loss,0,0,0,0,0,473173
test,100,I don't want to say,anywhere,guessing,37,experimental,neutral,no,yellow,yellow,387.39999997615814,j,702.6000000238419,0,0,0,120,0.3333333333333333,40,g-left-ng-right,600.7999999523163,f,1343.8999999761581,yes,win,120,0,0,0,0,479493
test,100,I don't want to say,anywhere,guessing,38,experimental,win,yes,mixed,blue,325.10000002384186,f,717.2999999523163,0,0,0,45,0.6666666666666666,30,ng-left-g-right,432.5,j,919.7999999523163,yes,loss,0,0,0,0,0,490127
test,100,I don't want to say,anywhere,guessing,39,experimental,loss,yes,mixed,blue,1192.7999999523163,j,1123.2999999523163,0,0,0,100,0.5,50,ng-left-g-right,581.6999999284744,j,1841.5,yes,loss,0,0,0,0,0,503103
test,100,I don't want to say,anywhere,guessing,40,experimental,loss,no,mixed,blue,696.1000000238419,j,983.6000000238419,0,0,0,160,0.25,40,g-left-ng-right,1120.6000000238419,f,2044.7999999523163,yes,loss,0,1,0,0,0,511236
test,100,I don't want to say,anywhere,guessing,41,experimental,loss,no,mixed,blue,484,j,764.2999999523163,0,0,0,120,0.25,30,g-left-ng-right,410.8000000715256,f,4209,yes,loss,0,0,0,0,0,520390
test,100,I don't want to say,anywhere,guessing,42,experimental,win,no,mixed,yellow,321,j,1278.1999999284744,0,0,0,80,0.5,40,ng-left-g-right,394.10000002384186,j,14649.699999928474,yes,loss,0,0,0,0,0,540324
test,100,I don't want to say,anywhere,guessing,43,experimental,win,no,mixed,blue,1677.7999999523163,f,1665.7000000476837,0,0,0,90,0.6666666666666666,60,g-left-ng-right,1276.0999999046326,f,1296.3000000715256,yes,win,90,0,0,0,0,549525
test,100,I don't want to say,anywhere,guessing,44,experimental,loss,no,mixed,blue,1391.1000000238419,j,819.3999999761581,0,0,0,60,0.6666666666666666,40,ng-left-g-right,1209.3999999761581,j,1111.1000000238419,yes,loss,0,0,0,0,0,557347
test,100,I don't want to say,anywhere,guessing,45,experimental,win,no,mixed,yellow,1108.3000000715256,j,1500,0,0,0,120,0.25,30,ng-left-g-right,995.3000000715256,j,1640,yes,loss,0,0,0,0,0,565883
test,100,I don't want to say,anywhere,guessing,46,experimental,loss,yes,mixed,yellow,394.2000000476837,f,1257.2000000476837,0,0,0,90,0.3333333333333333,30,g-left-ng-right,428,f,2067.1999999284744,yes,win,90,0,1,0,0,578269
test,100,I don't want to say,anywhere,guessing,47,experimental,neutral,yes,blue,blue,635.2000000476837,f,802.5,0,0,0,120,0.25,30,g-left-ng-right,674,f,764.1000000238419,yes,win,120,0,0,0,0,589389
test,100,I don't want to say,anywhere,guessing,48,experimental,neutral,no,yellow,yellow,366.2000000476837,j,2260.0999999046326,0,0,0,60,0.5,30,ng-left-g-right,725.1000000238419,j,1298.3999999761581,yes,win,60,0,0,0,0,597325
test,100,I don't want to say,anywhere,guessing,49,experimental,win,no,mixed,blue,293.39999997615814,f,1023.8999999761581,0,0,0,75,0.6666666666666666,50,ng-left-g-right,365.7000000476837,j,1105.1999999284744,yes,win,75,0,0,0,0,603405
test,100,I don't want to say,anywhere,guessing,50,catch,loss,no,mixed,blue,333.8000000715256,j,651,0,0,0,40,0.5,50,ng-left-g-right,364.10000002384186,f,967.7999999523163,no,neutral,50,0,0,0,0,609010
test,100,I don't want to say,anywhere,guessing,51,experimental,win,yes,mixed,blue,301,f,820.2999999523163,0,0,0,60,0.5,30,g-left-ng-right,597.1000000238419,f,1597.6000000238419,yes,loss,0,0,0,0,0,620564
test,100,I don't want to say,anywhere,guessing,52,experimental,win,no,mixed,yellow,408,j,993.6000000238419,0,0,0,120,0.5,60,g-left-ng-right,533.6000000238419,f,1618.6000000238419,yes,win,120,0,0,0,0,627406
test,100,I don't want to say,anywhere,guessing,53,experimental,loss,yes,mixed,blue,334,j,1157.1000000238419,0,0,0,80,0.25,20,g-left-ng-right,584.7000000476837,f,2213.5999999046326,yes,loss,0,0,0,0,0,639936
test,100,I don't want to say,anywhere,guessing,54,experimental,win,no,mixed,yellow,384.89999997615814,j,1046,0,0,0,60,0.3333333333333333,20,g-left-ng-right,453.2999999523163,f,1300.3000000715256,yes,loss,0,0,0,0,0,646404
test,100,I don't want to say,anywhere,guessing,55,experimental,win,yes,mixed,blue,380.60000002384186,f,1117.3000000715256,0,0,0,120,0.25,30,g-left-ng-right,825.1999999284744,j,1894.7999999523163,no,neutral,30,0,0,0,0,658865
test,100,I don't want to say,anywhere,guessing,56,experimental,win,yes,mixed,yellow,598.6000000238419,j,1332.2000000476837,0,0,0,30,0.6666666666666666,20,ng-left-g-right,1085.7000000476837,j,811.2999999523163,yes,win,30,0,0,0,0,670928
test,100,I don't want to say,anywhere,guessing,57,experimental,neutral,yes,yellow,yellow,925.1999999284744,j,619.8000000715256,0,0,0,30,0.6666666666666666,20,ng-left-g-right,741.7000000476837,j,859.8999999761581,yes,win,30,0,0,0,0,682315
test,100,I don't want to say,anywhere,guessing,58,experimental,neutral,no,blue,blue,411.89999997615814,f,787.7999999523163,0,0,0,180,0.3333333333333333,60,g-left-ng-right,736.1000000238419,f,1220.5,yes,loss,0,0,0,0,0,688765
test,100,I don't want to say,anywhere,guessing,59,experimental,neutral,yes,yellow,yellow,417.6999999284744,j,673.1000000238419,0,0,0,240,0.25,60,g-left-ng-right,561,f,3290.7999999523163,yes,loss,0,0,0,0,0,701944
test,100,I don't want to say,anywhere,guessing,60,experimental,win,no,mixed,yellow,441.10000002384186,j,787.5,0,0,0,30,0.6666666666666666,20,ng-left-g-right,392.39999997615814,j,1262.2000000476837,yes,loss,0,0,0,0,0,708117
test,100,I don't want to say,anywhere,guessing,61,experimental,win,yes,mixed,yellow,338.2999999523163,j,607.5999999046326,0,0,0,240,0.25,60,g-left-ng-right,567.2999999523163,f,1399.7000000476837,yes,loss,0,0,0,0,0,719277
test,100,I don't want to say,anywhere,guessing,62,experimental,neutral,no,yellow,yellow,346.2000000476837,j,692.2000000476837,0,0,0,40,0.5,20,g-left-ng-right,546.1000000238419,f,1034.5,yes,win,40,0,0,0,0,725178
test,100,I don't want to say,anywhere,guessing,63,experimental,neutral,yes,yellow,yellow,308.2999999523163,j,676.6999999284744,0,0,0,60,0.6666666666666666,40,g-left-ng-right,372,f,884.6000000238419,yes,win,60,0,0,0,0,735656
test,100,I don't want to say,anywhere,guessing,64,experimental,neutral,no,blue,blue,300.89999997615814,f,692.7000000476837,0,0,0,80,0.5,40,ng-left-g-right,350.1999999284744,j,1449,yes,win,80,0,0,0,0,741739
test,100,I don't want to say,anywhere,guessing,65,experimental,neutral,yes,yellow,yellow,500.10000002384186,j,782.8999999761581,0,0,0,90,0.6666666666666666,60,ng-left-g-right,332.2000000476837,j,1356.3999999761581,yes,loss,0,0,0,0,0,752948
test,100,I don't want to say,anywhere,guessing,66,experimental,neutral,no,yellow,yellow,267.1999999284744,j,622.7999999523163,0,0,0,160,0.25,40,g-left-ng-right,377.09999990463257,f,1542.5,yes,loss,0,0,0,0,0,759044
test,100,I don't want to say,anywhere,guessing,67,experimental,neutral,yes,blue,blue,274.6999999284744,f,702.2000000476837,0,0,0,150,0.3333333333333333,50,ng-left-g-right,785.6999999284744,j,2012.7000000476837,yes,loss,0,0,0,0,0,771059
test,100,I don't want to say,anywhere,guessing,68,experimental,win,no,mixed,yellow,825.7999999523163,j,1164.5,0,0,0,200,0.25,50,ng-left-g-right,569.5,j,1639,yes,loss,0,0,0,0,0,778546
test,100,I don't want to say,anywhere,guessing,69,experimental,loss,yes,mixed,yellow,561.5,f,738.3999999761581,0,0,0,120,0.3333333333333333,40,ng-left-g-right,348.3000000715256,j,1544,yes,win,120,0,0,0,0,789976
test,100,I don't want to say,anywhere,guessing,70,experimental,win,yes,mixed,blue,327,f,728.7000000476837,0,0,0,90,0.3333333333333333,30,g-left-ng-right,402.2999999523163,f,2129.899999976158,yes,win,90,0,0,0,0,801800
test,100,I don't want to say,anywhere,guessing,71,experimental,neutral,no,yellow,yellow,314.2000000476837,j,643.3999999761581,0,0,0,75,0.6666666666666666,50,ng-left-g-right,371,j,1142.7999999523163,yes,win,75,0,0,0,0,807560
test,100,I don't want to say,anywhere,guessing,72,experimental,loss,yes,mixed,yellow,382.89999997615814,f,1045.6000000238419,0,0,0,75,0.6666666666666666,50,g-left-ng-right,409.39999997615814,f,1036.3999999761581,yes,win,75,0,0,0,0,818680
test,100,I don't want to say,anywhere,guessing,73,experimental,neutral,no,yellow,yellow,526.8999999761581,j,988.4000000953674,0,0,0,90,0.3333333333333333,30,g-left-ng-right,404.09999990463257,f,1273,yes,loss,0,0,0,0,0,825163
test,100,I don't want to say,anywhere,guessing,74,experimental,win,yes,mixed,yellow,394.39999997615814,j,792.5,0,0,0,180,0.3333333333333333,60,g-left-ng-right,642.3000000715256,f,993.2999999523163,yes,loss,0,0,0,0,0,836221
test,100,I don't want to say,anywhere,guessing,75,catch,loss,no,mixed,blue,501.3000000715256,j,1144.1000000238419,0,0,0,60,0.5,90,g-left-ng-right,528.2999999523163,j,1250.1999999284744,no,neutral,90,0,0,0,0,842930
test,100,I don't want to say,anywhere,guessing,76,experimental,neutral,yes,blue,blue,419.90000009536743,f,670.6000000238419,0,0,0,60,0.3333333333333333,20,g-left-ng-right,513.7999999523163,f,2591.5999999046326,yes,win,60,0,0,0,0,855356
test,100,I don't want to say,anywhere,guessing,77,experimental,win,no,mixed,yellow,363.40000009536743,j,742.7000000476837,0,0,0,240,0.25,60,ng-left-g-right,561.2000000476837,j,1550.8999999761581,yes,loss,0,0,0,0,0,861863
test,100,I don't want to say,anywhere,guessing,78,experimental,neutral,yes,yellow,yellow,630.6000000238419,j,772.5,0,0,0,80,0.25,20,g-left-ng-right,818.6000000238419,f,1179.2999999523163,yes,win,80,0,0,0,0,873500
test,100,I don't want to say,anywhere,guessing,79,experimental,win,yes,mixed,yellow,434.39999997615814,j,939.7000000476837,0,0,0,80,0.25,20,ng-left-g-right,458,j,918.0999999046326,yes,loss,0,0,0,0,0,884493
test,100,I don't want to say,anywhere,guessing,80,experimental,neutral,no,yellow,yellow,423.89999997615814,j,638.6999999284744,0,0,0,60,0.6666666666666666,40,g-left-ng-right,392.39999997615814,f,1230.7000000476837,yes,win,60,0,0,0,0,890465
test,100,I don't want to say,anywhere,guessing,81,experimental,win,yes,mixed,yellow,265.2999999523163,j,619.1000000238419,0,0,0,75,0.6666666666666666,50,ng-left-g-right,313.10000002384186,j,1048.2000000476837,yes,loss,0,0,0,0,0,900950
test,100,I don't want to say,anywhere,guessing,82,experimental,win,no,mixed,yellow,599.5,j,613.1000000238419,0,0,0,45,0.6666666666666666,30,ng-left-g-right,425.90000009536743,j,1046.7999999523163,yes,win,45,0,0,0,0,906923
test,100,I don't want to say,anywhere,guessing,83,experimental,win,yes,mixed,blue,458.40000009536743,f,1093.2000000476837,0,0,0,60,0.3333333333333333,20,g-left-ng-right,364.89999997615814,j,1118.6000000238419,no,neutral,20,0,0,0,0,918197
test,100,I don't want to say,anywhere,guessing,84,experimental,neutral,yes,yellow,yellow,468.1999999284744,j,724.2000000476837,0,0,0,40,0.5,20,g-left-ng-right,683,f,959,yes,loss,0,0,0,0,0,929271
test,100,I don't want to say,anywhere,guessing,85,experimental,loss,yes,mixed,blue,336.7999999523163,j,523.1000000238419,0,0,0,45,0.6666666666666666,30,g-left-ng-right,713.8999999761581,f,2001.8999999761581,yes,loss,0,0,0,0,0,941082
test,100,I don't want to say,anywhere,guessing,86,experimental,loss,no,mixed,blue,518.8999999761581,j,747.6000000238419,0,0,0,60,0.5,30,g-left-ng-right,1495.6999999284744,f,1606.6000000238419,yes,loss,0,1,0,0,0,948735
test,100,I don't want to say,anywhere,guessing,87,experimental,win,yes,mixed,yellow,359.89999997615814,j,621.6000000238419,0,0,0,120,0.5,60,g-left-ng-right,482.7999999523163,j,1342.2999999523163,no,neutral,60,0,0,0,0,959777
test,100,I don't want to say,anywhere,guessing,88,experimental,neutral,no,yellow,yellow,326.60000002384186,j,648,0,0,0,90,0.6666666666666666,60,ng-left-g-right,387.60000002384186,j,1302.6000000238419,yes,win,90,0,0,0,0,965726
test,100,I don't want to say,anywhere,guessing,89,experimental,loss,no,mixed,yellow,302.2999999523163,f,1300.1999999284744,0,0,0,30,0.6666666666666666,20,ng-left-g-right,371.1999999284744,j,1050.6000000238419,yes,win,30,0,0,0,0,972038
test,100,I don't want to say,anywhere,guessing,90,experimental,loss,yes,mixed,blue,322.10000002384186,j,612.2000000476837,0,0,0,90,0.6666666666666666,60,g-left-ng-right,449.7000000476837,f,3178.8000000715256,yes,loss,0,0,0,0,0,984843
test,100,I don't want to say,anywhere,guessing,91,experimental,win,yes,mixed,yellow,880.8999999761581,j,658.5,1,0,0,100,0.5,50,g-left-ng-right,432.7999999523163,f,993.8999999761581,yes,loss,0,0,0,0,0,996052
test,100,I don't want to say,anywhere,guessing,92,experimental,neutral,no,yellow,yellow,495.1999999284744,j,749.7999999523163,0,0,0,150,0.3333333333333333,50,g-left-ng-right,535.3999999761581,f,1425,yes,loss,0,0,0,0,0,1002542
test,100,I don't want to say,anywhere,guessing,93,experimental,win,no,mixed,yellow,341.5,j,629.5,0,0,0,150,0.3333333333333333,50,g-left-ng-right,389.90000009536743,f,1544.8999999761581,yes,loss,0,0,0,0,0,1008739
test,100,I don't want to say,anywhere,guessing,94,experimental,win,yes,mixed,blue,331.2000000476837,f,699.7000000476837,0,0,0,200,0.25,50,g-left-ng-right,544.3999999761581,f,1835.7999999523163,yes,loss,0,0,0,0,0,1020392
test,100,I don't want to say,anywhere,guessing,95,experimental,neutral,no,blue,blue,298.89999997615814,f,1267.2999999523163,0,0,0,120,0.5,60,ng-left-g-right,334.5,f,1347.2999999523163,no,neutral,60,0,0,0,0,1026925
test,100,I don't want to say,anywhere,guessing,97,experimental,loss,yes,mixed,blue,352.6999999284744,j,752.2000000476837,0,0,0,60,0.3333333333333333,20,ng-left-g-right,2421.2000000476837,j,1268.2000000476837,yes,win,60,0,0,0,0,1054076
test,100,I don't want to say,anywhere,guessing,98,experimental,win,yes,mixed,yellow,645.6999999284744,j,865.8999999761581,0,0,0,90,0.6666666666666666,60,ng-left-g-right,443,j,1182,yes,loss,0,0,0,0,0,1065447
test,100,I don't want to say,anywhere,guessing,99,experimental,neutral,no,blue,blue,449.90000009536743,f,595,0,0,0,200,0.25,50,ng-left-g-right,341,f,1441.5,no,neutral,50,0,0,0,0,1071568
test,100,I don't want to say,anywhere,guessing,100,catch,neutral,no,blue,blue,297.2999999523163,f,581.3999999761581,0,0,0,40,0.5,60,g-left-ng-right,385.6999999284744,f,1069.7999999523163,yes,win,40,0,0,0,0,1077191
test,100,I don't want to say,anywhere,guessing,101,experimental,win,no,mixed,yellow,264.3000000715256,j,561.2000000476837,0,0,0,180,0.3333333333333333,60,ng-left-g-right,321.7000000476837,j,1523.6999999284744,yes,win,180,0,0,0,0,1083148
test,100,I don't want to say,anywhere,guessing,102,experimental,win,no,mixed,blue,241.80000007152557,f,570.1000000238419,0,0,1,40,0.5,20,ng-left-g-right,431.60000002384186,f,873.2999999523163,no,neutral,20,0,0,0,0,1088551
test,100,I don't want to say,anywhere,guessing,103,experimental,loss,yes,mixed,blue,338.2999999523163,j,575,0,0,0,60,0.5,30,g-left-ng-right,452.5,f,1239.8999999761581,yes,win,60,0,0,0,0,1099388
test,100,I don't want to say,anywhere,guessing,104,experimental,win,no,mixed,yellow,247.10000002384186,j,536.2999999523163,0,0,0,60,0.5,30,g-left-ng-right,285.10000002384186,f,928.1000000238419,yes,loss,0,0,0,0,0,1104673
test,100,I don't want to say,anywhere,guessing,105,experimental,win,no,mixed,blue,456.3000000715256,f,723.1000000238419,0,0,0,60,0.6666666666666666,40,ng-left-g-right,403.60000002384186,j,812,yes,win,60,0,0,0,0,1110353
test,100,I don't want to say,anywhere,guessing,106,experimental,loss,no,mixed,yellow,446,f,901,0,0,0,80,0.5,40,ng-left-g-right,358.7999999523163,j,853.2999999523163,yes,loss,0,0,0,0,0,1116198
test,100,I don't want to say,anywhere,guessing,107,experimental,loss,yes,mixed,blue,334,j,636.2999999523163,0,0,0,240,0.25,60,g-left-ng-right,417.5,f,1094.2000000476837,yes,loss,0,0,0,0,0,1126923
test,100,I don't want to say,anywhere,guessing,108,experimental,win,no,mixed,yellow,376.39999997615814,j,1019.1000000238419,0,0,0,160,0.25,40,ng-left-g-right,547.7000000476837,j,1100.5,yes,loss,0,0,0,0,0,1133259
test,100,I don't want to say,anywhere,guessing,109,experimental,loss,yes,mixed,blue,352.90000009536743,j,950.1000000238419,0,0,0,150,0.3333333333333333,50,ng-left-g-right,481.2999999523163,j,683.6000000238419,yes,loss,0,0,0,0,0,1143968
test,100,I don't want to say,anywhere,guessing,110,experimental,win,no,mixed,yellow,437.60000002384186,j,835.5,0,0,0,120,0.3333333333333333,40,ng-left-g-right,432.5,j,1044.6000000238419,yes,loss,0,0,0,0,0,1150011
test,100,I don't want to say,anywhere,guessing,111,experimental,neutral,yes,blue,blue,371.60000002384186,f,614.5,0,0,0,45,0.6666666666666666,30,ng-left-g-right,446.2999999523163,j,696.1999999284744,yes,loss,0,0,0,0,0,1160373
test,100,I don't want to say,anywhere,guessing,112,experimental,win,yes,mixed,yellow,563.7000000476837,j,668.3999999761581,0,0,0,80,0.5,40,g-left-ng-right,592.4000000953674,f,774.5,yes,win,80,0,0,0,0,1171216
test,100,I don't want to say,anywhere,guessing,113,experimental,loss,no,mixed,blue,390,j,875.2000000476837,0,0,0,180,0.3333333333333333,60,g-left-ng-right,304.60000002384186,f,697.5,yes,win,180,0,0,0,0,1176780
test,100,I don't want to say,anywhere,guessing,114,experimental,loss,no,mixed,blue,229,j,500.89999997615814,0,0,0,100,0.5,50,ng-left-g-right,440.89999997615814,j,824,yes,loss,0,0,0,0,0,1182063
test,100,I don't want to say,anywhere,guessing,115,experimental,loss,yes,mixed,yellow,306.39999997615814,f,521.8000000715256,0,0,0,160,0.25,40,ng-left-g-right,334.10000002384186,j,914.2000000476837,yes,loss,0,0,0,0,0,1192383
test,100,I don't want to say,anywhere,guessing,116,experimental,loss,no,mixed,blue,478.89999997615814,j,1246.2999999523163,0,0,0,120,0.5,60,g-left-ng-right,432.5,f,616,yes,win,120,0,0,0,0,1198447
test,100,I don't want to say,anywhere,guessing,117,experimental,neutral,no,yellow,yellow,336.10000002384186,j,718.7999999523163,0,0,0,60,0.3333333333333333,20,g-left-ng-right,410.2000000476837,f,589.6999999284744,yes,loss,0,0,0,0,0,1203791
test,100,I don't want to say,anywhere,guessing,118,experimental,win,yes,mixed,yellow,442.3000000715256,j,612.5,0,0,0,160,0.25,40,ng-left-g-right,362.7999999523163,j,1878.1999999284744,yes,win,160,0,0,0,0,1215326
test,100,I don't want to say,anywhere,guessing,119,experimental,loss,no,mixed,blue,333.5,j,633.1000000238419,0,0,0,90,0.6666666666666666,60,ng-left-g-right,517.5,f,2541.3000000715256,no,neutral,60,0,0,0,0,1222643
test,100,I don't want to say,anywhere,guessing,120,experimental,neutral,yes,yellow,yellow,301.5,j,822.8999999761581,0,0,0,120,0.3333333333333333,40,g-left-ng-right,478.1999999284744,f,1698.7000000476837,yes,loss,0,0,0,0,0,1234190
test,100,I don't want to say,anywhere,guessing,121,experimental,loss,yes,mixed,blue,449.2000000476837,j,588.5,0,0,0,40,0.5,20,ng-left-g-right,1165.3999999761581,j,704.7000000476837,yes,win,40,1,0,0,0,1245336
test,100,I don't want to say,anywhere,guessing,122,experimental,neutral,yes,blue,blue,310.2999999523163,f,596.5,0,0,0,200,0.25,50,g-left-ng-right,378,f,1485.1000000238419,yes,loss,0,0,0,0,0,1256349
test,100,I don't want to say,anywhere,guessing,123,experimental,win,no,mixed,yellow,1040.3999999761581,j,658.7000000476837,2,0,0,90,0.3333333333333333,30,g-left-ng-right,411.1999999284744,f,1383,yes,win,90,0,0,0,0,1263128
test,100,I don't want to say,anywhere,guessing,124,experimental,loss,no,mixed,blue,260.89999997615814,j,811.6999999284744,0,0,0,150,0.3333333333333333,50,g-left-ng-right,650.7999999523163,f,830.7000000476837,yes,loss,0,0,0,0,0,1268970
