subject_ID,age,gender,nationality,exp_part,block_number,trial_number,trial_type,delay,game1_startRT,game1_color,game1_respKey,game1_respRT,game1_outcome,game2_delay_premature,game2_startRT,game2_HP_prob,game2_HP_amount,game2_LP_prob,game2_LP_amount,game2_pos,game2_respKey,game2_respRT,game2_choice,game2_outcome,HP_EV,LP_EV,high_EV_option,choose_high_EV,EV_ratio,game1_outcome_num,delay_num,game2_choose_HP
1,36,male,Indian,practice_game1,1,1,practice,na,1491,mixed,j,2495,loss,0,0,0,0,0,0,na,na,0,na,na,0,0,LP,no,NA,0.5,-0.5,0
1,36,male,Indian,practice_game1,1,2,practice,na,1352,mixed,f,807,win,0,0,0,0,0,0,na,na,0,na,na,0,0,LP,no,NA,-0.5,-0.5,0
1,36,male,Indian,practice_game1,1,3,practice,na,1163,mixed,f,655,loss,0,0,0,0,0,0,na,na,0,na,na,0,0,LP,no,NA,0.5,-0.5,0
1,36,male,Indian,practice_game1,1,4,practice,na,868,mixed,f,831,win,0,0,0,0,0,0,na,na,0,na,na,0,0,LP,no,NA,-0.5,-0.5,0
1,36,male,Indian,practice_game2,2,1,practice,na,0,na,na,0,na,0,1855,0.7,10,0.3,50,LP-HP,f,3079,LP,win,7,15,LP,yes,-0.7272727272727273,-0.5,-0.5,0
1,36,male,Indian,practice_game2,2,2,practice,na,0,na,na,0,na,0,2380,0.8,10,0.2,20,HP-LP,f,2511,HP,win,8,4,HP,yes,0.6666666666666666,-0.5,-0.5,1
1,36,male,Indian,practice_game2,2,3,practice,na,0,na,na,0,na,0,3984,0.8,20,0.2,30,HP-LP,f,2254,HP,win,16,6,HP,yes,0.9090909090909091,-0.5,-0.5,1
1,36,male,Indian,practice_game2,2,4,practice,na,0,na,na,0,na,0,3793,0.6,10,0.4,40,LP-HP,f,2519,LP,win,6,16,LP,yes,-0.9090909090909091,-0.5,-0.5,0
1,36,male,Indian,practice_game2,2,5,practice,na,0,na,na,0,na,0,3224,0.8,50,0.4,20,HP-LP,f,3736,HP,win,40,8,HP,yes,1.3333333333333333,-0.5,-0.5,1
1,36,male,Indian,exp,3,2,exp,no,3006,mixed,f,887,win,0,1241,0.6,20,0.4,50,LP-HP,f,2711,LP,win,12,20,LP,yes,-0.5,-0.5,-0.5,0
1,36,male,Indian,exp,3,4,catch,yes,1101,mixed,j,1024,loss,0,952,0.7,30,0.3,10,LP-HP,j,1335,HP,win,21,3,HP,yes,1.5,0.5,0.5,1
1,36,male,Indian,exp,3,6,exp,no,813,mixed,f,1455,win,0,1192,0.7,30,0.3,40,HP-LP,j,2007,LP,win,21,12,HP,no,0.5454545454545454,-0.5,-0.5,0
1,36,male,Indian,exp,3,8,exp,yes,1595,mixed,j,1303,loss,0,633,0.6,40,0.4,50,LP-HP,f,2031,LP,no-win,24,20,HP,no,0.18181818181818182,0.5,0.5,0
1,36,male,Indian,exp,3,10,catch,yes,1093,mixed,f,1759,win,0,1218,0.8,0,0.3,20,HP-LP,j,1519,LP,win,0,6,LP,yes,-2,-0.5,0.5,0
1,36,male,Indian,exp,3,12,exp,no,989,mixed,j,1400,loss,0,1361,0.7,10,0.3,30,HP-LP,f,1687,HP,win,7,9,LP,no,-0.25,0.5,-0.5,1
1,36,male,Indian,exp,3,14,exp,yes,1028,mixed,j,1159,loss,0,992,0.6,20,0.4,50,LP-HP,f,1455,LP,win,12,20,LP,yes,-0.5,0.5,0.5,0
1,36,male,Indian,exp,3,16,exp,no,1341,mixed,j,1127,win,0,977,0.8,10,0.2,20,LP-HP,j,1527,HP,win,8,4,HP,yes,0.6666666666666666,-0.5,-0.5,1
1,36,male,Indian,exp,3,18,exp,yes,877,mixed,f,1631,win,1,943,0.6,10,0.4,40,LP-HP,f,1623,LP,win,6,16,LP,yes,-0.9090909090909091,-0.5,0.5,0
1,36,male,Indian,exp,3,20,exp,no,1379,mixed,j,1095,loss,0,2016,0.6,20,0.4,50,LP-HP,j,1015,HP,win,12,20,LP,no,-0.5,0.5,-0.5,1
1,36,male,Indian,exp,3,22,exp,yes,1021,mixed,f,943,loss,1,801,0.7,20,0.3,30,HP-LP,f,1462,HP,win,14,9,HP,yes,0.43478260869565216,0.5,0.5,1
1,36,male,Indian,exp,3,24,catch,yes,1601,mixed,j,1399,win,0,1593,0.8,50,0.2,30,HP-LP,f,1166,HP,win,40,6,HP,yes,1.4782608695652173,-0.5,0.5,1
1,36,male,Indian,exp,3,26,exp,no,3533,mixed,f,1152,win,0,934,0.6,30,0.4,50,LP-HP,f,1847,LP,no-win,18,20,LP,yes,-0.10526315789473684,-0.5,-0.5,0
1,36,male,Indian,exp,3,28,catch,yes,1245,mixed,j,1183,loss,0,808,0.8,50,0.2,30,LP-HP,j,1967,HP,win,40,6,HP,yes,1.4782608695652173,0.5,0.5,1
1,36,male,Indian,exp,3,30,exp,no,1140,mixed,f,1344,loss,0,784,0.8,20,0.2,30,LP-HP,j,1111,HP,win,16,6,HP,yes,0.9090909090909091,0.5,-0.5,1
1,36,male,Indian,exp,3,32,exp,yes,821,mixed,f,1543,loss,0,561,0.6,40,0.4,50,HP-LP,f,1175,HP,no-win,24,20,HP,yes,0.18181818181818182,0.5,0.5,1
1,36,male,Indian,exp,3,34,exp,yes,860,mixed,j,1111,win,0,1009,0.6,40,0.4,50,HP-LP,j,1823,LP,win,24,20,HP,no,0.18181818181818182,-0.5,0.5,0
1,36,male,Indian,exp,3,36,exp,yes,1084,mixed,j,2086,win,0,641,0.7,20,0.3,30,HP-LP,f,1327,HP,win,14,9,HP,yes,0.43478260869565216,-0.5,0.5,1
1,36,male,Indian,exp,3,38,exp,yes,1939,mixed,j,1455,loss,0,2377,0.6,30,0.4,50,HP-LP,j,1607,LP,win,18,20,LP,yes,-0.10526315789473684,0.5,0.5,0
1,36,male,Indian,exp,3,40,exp,no,2197,mixed,f,1455,loss,0,1977,0.7,20,0.3,30,LP-HP,j,1670,HP,no-win,14,9,HP,yes,0.43478260869565216,0.5,-0.5,1
1,36,male,Indian,exp,3,42,exp,yes,1636,mixed,j,1111,win,0,1593,0.7,10,0.3,50,HP-LP,f,1599,HP,win,7,15,LP,no,-0.7272727272727273,-0.5,0.5,1
1,36,male,Indian,exp,3,44,catch,yes,1909,mixed,j,879,win,0,1609,0.8,40,0.2,20,LP-HP,j,959,HP,win,32,4,HP,yes,1.5555555555555556,-0.5,0.5,1
1,36,male,Indian,exp,3,46,exp,yes,1517,mixed,f,846,win,0,1228,0.6,20,0.4,50,LP-HP,j,1071,HP,no-win,12,20,LP,no,-0.5,-0.5,0.5,1
1,36,male,Indian,exp,3,48,exp,no,1709,mixed,f,2095,win,0,2057,0.8,10,0.2,20,HP-LP,f,1119,HP,win,8,4,HP,yes,0.6666666666666666,-0.5,-0.5,1
1,36,male,Indian,exp,3,50,exp,no,1643,mixed,j,4112,loss,0,4033,0.8,10,0.2,20,LP-HP,j,1518,HP,win,8,4,HP,yes,0.6666666666666666,0.5,-0.5,1
1,36,male,Indian,exp,3,52,catch,yes,2341,mixed,f,1032,loss,0,3601,0.7,0,0.4,30,HP-LP,j,2743,LP,no-win,0,12,LP,yes,-2,0.5,0.5,0
1,36,male,Indian,exp,4,2,catch,no,2317,mixed,f,759,win,0,712,0.7,30,0.3,10,LP-HP,j,1079,HP,win,21,3,HP,yes,1.5,-0.5,-0.5,1
1,36,male,Indian,exp,4,4,exp,yes,597,mixed,f,687,win,0,873,0.8,20,0.2,30,LP-HP,j,791,HP,no-win,16,6,HP,yes,0.9090909090909091,-0.5,0.5,1
1,36,male,Indian,exp,4,6,exp,no,916,mixed,f,712,loss,0,2177,0.7,10,0.3,50,HP-LP,f,1470,HP,no-win,7,15,LP,no,-0.7272727272727273,0.5,-0.5,1
1,36,male,Indian,exp,4,8,exp,yes,958,mixed,j,799,win,0,3106,0.6,20,0.4,50,HP-LP,j,1935,LP,no-win,12,20,LP,yes,-0.5,-0.5,0.5,0
1,36,male,Indian,exp,4,10,catch,no,2612,mixed,f,1095,loss,0,4407,0.7,30,0.3,10,HP-LP,f,1183,HP,win,21,3,HP,yes,1.5,0.5,-0.5,1
1,36,male,Indian,exp,4,12,exp,yes,2175,mixed,j,839,loss,0,681,0.7,10,0.3,50,HP-LP,f,951,HP,win,7,15,LP,no,-0.7272727272727273,0.5,0.5,1
1,36,male,Indian,exp,4,14,exp,no,2357,mixed,j,965,win,0,2313,0.7,10,0.3,50,LP-HP,j,958,HP,no-win,7,15,LP,no,-0.7272727272727273,-0.5,-0.5,1
1,36,male,Indian,exp,4,16,exp,yes,1285,mixed,f,807,win,0,841,0.7,30,0.3,40,HP-LP,f,959,HP,win,21,12,HP,yes,0.5454545454545454,-0.5,0.5,1
1,36,male,Indian,exp,4,18,exp,no,3061,mixed,j,750,win,0,1009,0.6,10,0.4,40,LP-HP,f,1519,LP,no-win,6,16,LP,yes,-0.9090909090909091,-0.5,-0.5,0
1,36,male,Indian,exp,4,20,exp,yes,1109,mixed,j,671,win,0,817,0.6,30,0.4,50,HP-LP,f,887,HP,no-win,18,20,LP,no,-0.10526315789473684,-0.5,0.5,1
1,36,male,Indian,exp,4,22,exp,no,748,mixed,j,736,win,0,1233,0.6,30,0.4,50,HP-LP,f,879,HP,no-win,18,20,LP,no,-0.10526315789473684,-0.5,-0.5,1
1,36,male,Indian,exp,4,24,exp,no,2590,mixed,j,783,loss,0,1713,0.7,30,0.3,40,HP-LP,f,775,HP,no-win,21,12,HP,yes,0.5454545454545454,0.5,-0.5,1
1,36,male,Indian,exp,4,26,exp,no,1661,mixed,j,703,loss,0,541,0.6,40,0.4,50,HP-LP,f,919,HP,win,24,20,HP,yes,0.18181818181818182,0.5,-0.5,1
1,36,male,Indian,exp,4,28,exp,yes,1118,mixed,j,607,loss,0,657,0.7,30,0.3,40,LP-HP,j,967,HP,win,21,12,HP,yes,0.5454545454545454,0.5,0.5,1
1,36,male,Indian,exp,4,30,catch,no,3222,mixed,f,863,loss,0,624,0.8,0,0.3,20,HP-LP,f,583,HP,win,0,6,LP,no,-2,0.5,-0.5,1
1,36,male,Indian,exp,4,32,catch,no,742,mixed,j,623,loss,0,1242,0.8,40,0.2,20,LP-HP,j,1064,HP,win,32,4,HP,yes,1.5555555555555556,0.5,-0.5,1
1,36,male,Indian,exp,4,34,exp,yes,1085,mixed,f,679,loss,0,674,0.7,10,0.3,30,HP-LP,f,910,HP,win,7,9,LP,no,-0.25,0.5,0.5,1
1,36,male,Indian,exp,4,36,exp,no,996,mixed,j,719,win,0,553,0.8,20,0.2,30,LP-HP,j,751,HP,win,16,6,HP,yes,0.9090909090909091,-0.5,-0.5,1
1,36,male,Indian,exp,4,38,exp,no,1093,mixed,f,936,loss,0,617,0.7,10,0.3,50,LP-HP,j,791,HP,win,7,15,LP,no,-0.7272727272727273,0.5,-0.5,1
1,36,male,Indian,exp,4,40,exp,yes,749,mixed,f,751,loss,0,848,0.7,10,0.3,50,LP-HP,j,751,HP,no-win,7,15,LP,no,-0.7272727272727273,0.5,0.5,1
1,36,male,Indian,exp,4,42,exp,yes,3492,mixed,f,583,loss,0,631,0.7,30,0.3,40,HP-LP,f,896,HP,win,21,12,HP,yes,0.5454545454545454,0.5,0.5,1
1,36,male,Indian,exp,4,44,catch,yes,1405,mixed,j,656,loss,0,489,0.8,40,0.2,20,HP-LP,f,671,HP,no-win,32,4,HP,yes,1.5555555555555556,0.5,0.5,1
1,36,male,Indian,exp,4,46,exp,yes,775,mixed,j,543,win,0,801,0.8,10,0.2,20,LP-HP,j,759,HP,win,8,4,HP,yes,0.6666666666666666,-0.5,0.5,1
1,36,male,Indian,exp,4,48,catch,yes,4294,mixed,f,687,win,0,861,0.7,30,0.3,10,HP-LP,f,993,HP,win,21,3,HP,yes,1.5,-0.5,0.5,1
1,36,male,Indian,exp,4,50,exp,no,884,mixed,j,623,win,0,592,0.7,30,0.3,40,LP-HP,j,663,HP,no-win,21,12,HP,yes,0.5454545454545454,-0.5,-0.5,1
1,36,male,Indian,exp,4,52,exp,yes,822,mixed,f,543,loss,0,561,0.7,10,0.3,30,LP-HP,j,615,HP,win,7,9,LP,no,-0.25,0.5,0.5,1
1,36,male,Indian,exp,5,2,exp,yes,1310,mixed,f,583,win,0,794,0.6,10,0.4,40,HP-LP,j,1336,LP,no-win,6,16,LP,yes,-0.9090909090909091,-0.5,0.5,0
1,36,male,Indian,exp,5,4,exp,no,622,mixed,f,582,win,0,1170,0.7,10,0.3,30,LP-HP,j,567,HP,win,7,9,LP,no,-0.25,-0.5,-0.5,1
1,36,male,Indian,exp,5,6,exp,no,805,mixed,f,935,win,0,90,0.7,10,0.3,50,HP-LP,f,663,HP,win,7,15,LP,no,-0.7272727272727273,-0.5,-0.5,1
1,36,male,Indian,exp,5,8,exp,yes,340,mixed,j,551,win,0,457,0.7,10,0.3,30,LP-HP,j,758,HP,win,7,9,LP,no,-0.25,-0.5,0.5,1
1,36,male,Indian,exp,5,10,exp,yes,1091,mixed,f,495,loss,0,605,0.6,30,0.4,50,LP-HP,j,559,HP,win,18,20,LP,no,-0.10526315789473684,0.5,0.5,1
1,36,male,Indian,exp,5,12,exp,no,2012,mixed,f,579,loss,0,465,0.8,10,0.2,20,HP-LP,f,1079,HP,no-win,8,4,HP,yes,0.6666666666666666,0.5,-0.5,1
1,36,male,Indian,exp,5,14,exp,no,3677,mixed,j,479,loss,0,826,0.6,40,0.4,50,LP-HP,j,718,HP,win,24,20,HP,yes,0.18181818181818182,0.5,-0.5,1
1,36,male,Indian,exp,5,16,exp,yes,1397,mixed,f,767,win,1,641,0.6,40,0.4,50,LP-HP,j,751,HP,win,24,20,HP,yes,0.18181818181818182,-0.5,0.5,1
1,36,male,Indian,exp,5,18,exp,yes,822,mixed,f,783,loss,0,537,0.8,20,0.2,30,LP-HP,j,532,HP,win,16,6,HP,yes,0.9090909090909091,0.5,0.5,1
1,36,male,Indian,exp,5,20,exp,yes,1045,mixed,f,599,loss,0,473,0.7,20,0.3,30,LP-HP,j,446,HP,win,14,9,HP,yes,0.43478260869565216,0.5,0.5,1
1,36,male,Indian,exp,5,22,exp,yes,1061,mixed,f,454,loss,0,58,0.6,10,0.4,40,HP-LP,j,1439,LP,win,6,16,LP,yes,-0.9090909090909091,0.5,0.5,0
1,36,male,Indian,exp,5,24,exp,yes,931,mixed,f,527,loss,0,450,0.6,20,0.4,50,HP-LP,j,1440,LP,no-win,12,20,LP,yes,-0.5,0.5,0.5,0
1,36,male,Indian,exp,5,26,exp,no,669,mixed,f,543,loss,0,457,0.6,10,0.4,40,LP-HP,j,463,HP,win,6,16,LP,no,-0.9090909090909091,0.5,-0.5,1
1,36,male,Indian,exp,5,28,exp,yes,1469,mixed,f,551,win,1,887,0.7,30,0.3,40,LP-HP,j,615,HP,win,21,12,HP,yes,0.5454545454545454,-0.5,0.5,1
1,36,male,Indian,exp,5,30,exp,no,800,mixed,f,575,loss,0,514,0.6,20,0.4,50,HP-LP,j,471,LP,no-win,12,20,LP,yes,-0.5,0.5,-0.5,0
1,36,male,Indian,exp,5,32,exp,no,2662,mixed,j,1141,win,0,2072,0.8,20,0.2,30,HP-LP,f,527,HP,win,16,6,HP,yes,0.9090909090909091,-0.5,-0.5,1
1,36,male,Indian,exp,5,34,catch,yes,789,mixed,j,831,win,1,1625,0.6,0,0.2,40,LP-HP,j,663,HP,win,0,8,LP,no,-2,-0.5,0.5,1
1,36,male,Indian,exp,5,36,catch,no,700,mixed,f,727,loss,0,2554,0.7,0,0.4,30,LP-HP,j,943,HP,win,0,12,LP,no,-2,0.5,-0.5,1
1,36,male,Indian,exp,5,38,catch,no,718,mixed,f,647,win,0,1025,0.6,0,0.2,40,HP-LP,f,888,HP,no-win,0,8,LP,no,-2,-0.5,-0.5,1
1,36,male,Indian,exp,5,40,exp,no,740,mixed,j,568,win,0,721,0.6,40,0.4,50,HP-LP,j,1231,LP,no-win,24,20,HP,no,0.18181818181818182,-0.5,-0.5,0
1,36,male,Indian,exp,5,42,catch,no,588,mixed,f,640,loss,0,848,0.8,50,0.2,30,HP-LP,f,1463,HP,win,40,6,HP,yes,1.4782608695652173,0.5,-0.5,1
1,36,male,Indian,exp,5,44,catch,yes,1383,mixed,j,693,loss,0,578,0.8,0,0.3,20,LP-HP,f,439,LP,no-win,0,6,LP,yes,-2,0.5,0.5,0
1,36,male,Indian,exp,5,46,exp,no,682,mixed,j,728,win,0,738,0.6,20,0.4,50,HP-LP,f,783,HP,win,12,20,LP,no,-0.5,-0.5,-0.5,1
1,36,male,Indian,exp,5,48,exp,no,580,mixed,j,631,win,0,753,0.7,20,0.3,30,LP-HP,j,599,HP,no-win,14,9,HP,yes,0.43478260869565216,-0.5,-0.5,1
1,36,male,Indian,exp,5,50,catch,no,1038,mixed,f,479,win,0,977,0.8,50,0.2,30,LP-HP,j,872,HP,no-win,40,6,HP,yes,1.4782608695652173,-0.5,-0.5,1
1,36,male,Indian,exp,5,52,exp,yes,309,mixed,j,767,win,1,753,0.7,20,0.3,30,LP-HP,j,486,HP,no-win,14,9,HP,yes,0.43478260869565216,-0.5,0.5,1
1,36,male,Indian,exp,6,2,exp,no,1133,mixed,f,599,loss,0,934,0.6,30,0.4,50,HP-LP,j,1230,LP,win,18,20,LP,yes,-0.10526315789473684,0.5,-0.5,0
1,36,male,Indian,exp,6,4,exp,no,739,mixed,f,615,loss,0,497,0.6,30,0.4,50,LP-HP,j,414,HP,no-win,18,20,LP,no,-0.10526315789473684,0.5,-0.5,1
1,36,male,Indian,exp,6,6,exp,yes,602,mixed,f,470,loss,1,606,0.8,20,0.2,30,HP-LP,f,862,HP,win,16,6,HP,yes,0.9090909090909091,0.5,0.5,1
1,36,male,Indian,exp,6,8,catch,no,957,mixed,j,615,loss,0,377,0.6,0,0.2,40,LP-HP,j,2040,HP,no-win,0,8,LP,no,-2,0.5,-0.5,1
1,36,male,Indian,exp,6,10,exp,yes,599,mixed,f,822,win,1,548,0.8,20,0.2,30,HP-LP,f,1130,HP,no-win,16,6,HP,yes,0.9090909090909091,-0.5,0.5,1
1,36,male,Indian,exp,6,12,catch,yes,521,mixed,j,679,loss,1,561,0.6,0,0.2,40,HP-LP,j,1404,LP,no-win,0,8,LP,yes,-2,0.5,0.5,0
1,36,male,Indian,exp,6,14,exp,yes,529,mixed,f,511,win,1,545,0.7,10,0.3,30,HP-LP,f,1134,HP,win,7,9,LP,no,-0.25,-0.5,0.5,1
1,36,male,Indian,exp,6,16,exp,no,419,mixed,j,759,win,0,544,0.6,10,0.4,40,HP-LP,j,1695,LP,win,6,16,LP,yes,-0.9090909090909091,-0.5,-0.5,0
1,36,male,Indian,exp,6,18,catch,yes,468,mixed,f,583,win,0,681,0.7,0,0.4,30,LP-HP,f,1110,LP,win,0,12,LP,yes,-2,-0.5,0.5,0
1,36,male,Indian,exp,6,20,catch,no,431,mixed,f,663,win,0,2001,0.7,0,0.4,30,HP-LP,j,758,LP,no-win,0,12,LP,yes,-2,-0.5,-0.5,0
1,36,male,Indian,exp,6,22,catch,no,603,mixed,j,751,win,0,1193,0.8,40,0.2,20,HP-LP,f,312,HP,win,32,4,HP,yes,1.5555555555555556,-0.5,-0.5,1
1,36,male,Indian,exp,6,24,exp,yes,326,mixed,j,656,loss,1,593,0.8,10,0.2,20,HP-LP,f,495,HP,win,8,4,HP,yes,0.6666666666666666,0.5,0.5,1
1,36,male,Indian,exp,6,26,exp,no,422,mixed,j,567,loss,0,690,0.6,10,0.4,40,HP-LP,f,350,HP,win,6,16,LP,no,-0.9090909090909091,0.5,-0.5,1
1,36,male,Indian,exp,6,28,exp,yes,304,mixed,j,597,win,1,552,0.8,10,0.2,20,HP-LP,f,1590,HP,win,8,4,HP,yes,0.6666666666666666,-0.5,0.5,1
1,36,male,Indian,exp,6,30,exp,no,949,mixed,j,607,win,0,2290,0.6,40,0.4,50,LP-HP,f,1759,LP,no-win,24,20,HP,no,0.18181818181818182,-0.5,-0.5,0
1,36,male,Indian,exp,6,32,exp,no,436,mixed,j,620,loss,0,881,0.7,10,0.3,30,LP-HP,f,1880,LP,no-win,7,9,LP,yes,-0.25,0.5,-0.5,0
1,36,male,Indian,exp,6,34,exp,yes,398,mixed,j,647,win,0,510,0.7,10,0.3,50,LP-HP,f,1583,LP,no-win,7,15,LP,yes,-0.7272727272727273,-0.5,0.5,0
1,36,male,Indian,exp,6,36,exp,yes,1382,mixed,j,759,loss,1,703,0.6,10,0.4,40,LP-HP,f,871,LP,win,6,16,LP,yes,-0.9090909090909091,0.5,0.5,0
1,36,male,Indian,exp,6,38,exp,no,965,mixed,j,720,loss,0,665,0.8,20,0.2,30,HP-LP,f,751,HP,win,16,6,HP,yes,0.9090909090909091,0.5,-0.5,1
1,36,male,Indian,exp,6,40,exp,no,437,mixed,j,617,loss,0,802,0.7,30,0.3,40,LP-HP,j,471,HP,win,21,12,HP,yes,0.5454545454545454,0.5,-0.5,1
1,36,male,Indian,exp,6,42,exp,yes,1364,mixed,j,544,win,1,759,0.6,30,0.4,50,LP-HP,f,783,LP,win,18,20,LP,yes,-0.10526315789473684,-0.5,0.5,0
1,36,male,Indian,exp,6,44,exp,no,532,mixed,j,494,win,0,466,0.7,10,0.3,30,HP-LP,j,1087,LP,no-win,7,9,LP,yes,-0.25,-0.5,-0.5,0
1,36,male,Indian,exp,6,46,exp,yes,1102,mixed,f,639,loss,0,682,0.8,10,0.2,20,LP-HP,j,904,HP,win,8,4,HP,yes,0.6666666666666666,0.5,0.5,1
1,36,male,Indian,exp,6,48,catch,no,775,mixed,f,687,win,0,1089,0.8,0,0.3,20,LP-HP,j,583,HP,win,0,6,LP,no,-2,-0.5,-0.5,1
1,36,male,Indian,exp,6,50,exp,no,942,mixed,f,495,loss,0,4827,0.7,20,0.3,30,HP-LP,f,1174,HP,win,14,9,HP,yes,0.43478260869565216,0.5,-0.5,1
1,36,male,Indian,exp,6,52,exp,no,856,mixed,j,758,win,0,1042,0.7,20,0.3,30,HP-LP,f,607,HP,win,14,9,HP,yes,0.43478260869565216,-0.5,-0.5,1
10,39,male,ESPAÑOLA,practice_game1,1,1,practice,na,4206,mixed,j,1287,win,0,0,0,0,0,0,na,na,0,na,na,0,0,LP,no,NA,-0.5,-0.5,0
10,39,male,ESPAÑOLA,practice_game1,1,2,practice,na,2836,mixed,j,1191,loss,0,0,0,0,0,0,na,na,0,na,na,0,0,LP,no,NA,0.5,-0.5,0
10,39,male,ESPAÑOLA,practice_game1,1,3,practice,na,1582,mixed,j,4176,win,0,0,0,0,0,0,na,na,0,na,na,0,0,LP,no,NA,-0.5,-0.5,0
10,39,male,ESPAÑOLA,practice_game1,1,4,practice,na,354075,mixed,f,2119,loss,0,0,0,0,0,0,na,na,0,na,na,0,0,LP,no,NA,0.5,-0.5,0
10,39,male,ESPAÑOLA,practice_game2,2,1,practice,na,0,na,na,0,na,0,1442,0.8,20,0.2,30,LP-HP,j,895,HP,win,16,6,HP,yes,0.9090909090909091,-0.5,-0.5,1
10,39,male,ESPAÑOLA,practice_game2,2,2,practice,na,0,na,na,0,na,0,2456,0.8,10,0.2,20,HP-LP,f,1751,HP,win,8,4,HP,yes,0.6666666666666666,-0.5,-0.5,1
10,39,male,ESPAÑOLA,practice_game2,2,3,practice,na,0,na,na,0,na,0,2078,0.7,10,0.3,50,HP-LP,j,736,LP,win,7,15,LP,yes,-0.7272727272727273,-0.5,-0.5,0
10,39,male,ESPAÑOLA,practice_game2,2,4,practice,na,0,na,na,0,na,0,2057,0.6,10,0.4,40,LP-HP,f,943,LP,no-win,6,16,LP,yes,-0.9090909090909091,-0.5,-0.5,0
10,39,male,ESPAÑOLA,practice_game2,2,5,practice,na,0,na,na,0,na,0,1177,0.8,50,0.4,20,HP-LP,f,1407,HP,win,40,8,HP,yes,1.3333333333333333,-0.5,-0.5,1
10,39,male,ESPAÑOLA,exp,3,2,catch,yes,2111,mixed,j,1192,win,1,1575,0.6,0,0.2,40,HP-LP,j,1064,LP,no-win,0,8,LP,yes,-2,-0.5,0.5,0
10,39,male,ESPAÑOLA,exp,3,4,exp,yes,166,mixed,j,944,win,2,865,0.6,20,0.4,50,HP-LP,j,1095,LP,win,12,20,LP,yes,-0.5,-0.5,0.5,0
10,39,male,ESPAÑOLA,exp,3,6,exp,yes,2234,mixed,j,1103,loss,7,984,0.8,10,0.2,20,HP-LP,f,1791,HP,win,8,4,HP,yes,0.6666666666666666,0.5,0.5,1
10,39,male,ESPAÑOLA,exp,3,8,exp,yes,1392,mixed,f,1151,loss,3,342,0.7,20,0.3,30,HP-LP,f,1903,HP,win,14,9,HP,yes,0.43478260869565216,0.5,0.5,1
10,39,male,ESPAÑOLA,exp,3,10,exp,yes,115,mixed,j,935,win,8,1047,0.7,10,0.3,50,LP-HP,f,1128,LP,win,7,15,LP,yes,-0.7272727272727273,-0.5,0.5,0
10,39,male,ESPAÑOLA,exp,3,12,exp,yes,86,mixed,j,608,win,8,4645,0.6,20,0.4,50,LP-HP,f,856,LP,no-win,12,20,LP,yes,-0.5,-0.5,0.5,0
10,39,male,ESPAÑOLA,exp,3,14,exp,yes,9327,mixed,f,456,loss,2,117317,0.7,10,0.3,50,LP-HP,j,1591,HP,no-win,7,15,LP,no,-0.7272727272727273,0.5,0.5,1
10,39,male,ESPAÑOLA,exp,3,16,catch,no,1856,mixed,j,656,loss,1,991,0.8,0,0.3,20,HP-LP,f,2127,HP,win,0,6,LP,no,-2,0.5,-0.5,1
10,39,male,ESPAÑOLA,exp,3,18,catch,no,902,mixed,f,536,win,1,472,0.7,0,0.4,30,HP-LP,f,1799,HP,win,0,12,LP,no,-2,-0.5,-0.5,1
10,39,male,ESPAÑOLA,exp,3,20,catch,yes,591,mixed,j,912,win,3,504,0.7,30,0.3,10,LP-HP,j,2607,HP,win,21,3,HP,yes,1.5,-0.5,0.5,1
10,39,male,ESPAÑOLA,exp,3,22,catch,no,1935,mixed,f,503,win,0,722,0.8,50,0.2,30,LP-HP,j,1623,HP,win,40,6,HP,yes,1.4782608695652173,-0.5,-0.5,1
10,39,male,ESPAÑOLA,exp,3,24,exp,yes,474,mixed,f,672,win,6,1087,0.7,30,0.3,40,LP-HP,j,2064,HP,win,21,12,HP,yes,0.5454545454545454,-0.5,0.5,1
10,39,male,ESPAÑOLA,exp,3,26,exp,yes,294,mixed,f,600,loss,7,251,0.6,20,0.4,50,HP-LP,f,1800,HP,win,12,20,LP,no,-0.5,0.5,0.5,1
10,39,male,ESPAÑOLA,exp,3,28,exp,no,2775,mixed,f,383,loss,1,2098,0.7,10,0.3,50,HP-LP,f,1567,HP,win,7,15,LP,no,-0.7272727272727273,0.5,-0.5,1
10,39,male,ESPAÑOLA,exp,3,30,exp,no,1719,mixed,f,528,win,0,1088,0.8,20,0.2,30,HP-LP,j,487,LP,no-win,16,6,HP,no,0.9090909090909091,-0.5,-0.5,0
10,39,male,ESPAÑOLA,exp,3,32,exp,yes,45,mixed,f,752,win,1,207,0.8,20,0.2,30,LP-HP,j,1440,HP,win,16,6,HP,yes,0.9090909090909091,-0.5,0.5,1
10,39,male,ESPAÑOLA,exp,3,34,exp,yes,191,mixed,f,872,loss,7,1671,0.6,30,0.4,50,HP-LP,f,1647,HP,no-win,18,20,LP,no,-0.10526315789473684,0.5,0.5,1
10,39,male,ESPAÑOLA,exp,3,36,exp,yes,1414,mixed,j,888,loss,4,561,0.7,10,0.3,30,LP-HP,j,1631,HP,win,7,9,LP,no,-0.25,0.5,0.5,1
10,39,male,ESPAÑOLA,exp,3,38,exp,no,520,mixed,f,335,loss,0,976,0.7,10,0.3,30,LP-HP,j,1567,HP,win,7,9,LP,no,-0.25,0.5,-0.5,1
10,39,male,ESPAÑOLA,exp,3,40,exp,no,215,mixed,f,544,loss,0,377,0.6,10,0.4,40,LP-HP,j,296,HP,win,6,16,LP,no,-0.9090909090909091,0.5,-0.5,1
10,39,male,ESPAÑOLA,exp,3,42,exp,yes,638,mixed,f,320,loss,5,1593,0.8,10,0.2,20,LP-HP,f,271,LP,no-win,8,4,HP,no,0.6666666666666666,0.5,0.5,0
10,39,male,ESPAÑOLA,exp,3,44,exp,yes,1024,mixed,j,711,win,0,1689,0.7,10,0.3,30,HP-LP,f,1295,HP,win,7,9,LP,no,-0.25,-0.5,0.5,1
10,39,male,ESPAÑOLA,exp,3,46,exp,no,2078,mixed,f,799,loss,1,2368,0.6,20,0.4,50,LP-HP,j,1184,HP,win,12,20,LP,no,-0.5,0.5,-0.5,1
10,39,male,ESPAÑOLA,exp,3,48,catch,no,1036,mixed,f,1336,loss,0,1256,0.8,50,0.2,30,HP-LP,f,791,HP,win,40,6,HP,yes,1.4782608695652173,0.5,-0.5,1
10,39,male,ESPAÑOLA,exp,3,50,exp,no,2315,mixed,j,895,win,1,1131,0.7,20,0.3,30,HP-LP,f,1511,HP,win,14,9,HP,yes,0.43478260869565216,-0.5,-0.5,1
10,39,male,ESPAÑOLA,exp,3,52,exp,yes,664,mixed,j,767,loss,1,13835,0.7,10,0.3,30,HP-LP,f,1615,HP,win,7,9,LP,no,-0.25,0.5,0.5,1
10,39,male,ESPAÑOLA,exp,4,2,exp,no,983,mixed,j,1792,win,0,432,0.6,10,0.4,40,LP-HP,f,2599,LP,win,6,16,LP,yes,-0.9090909090909091,-0.5,-0.5,0
10,39,male,ESPAÑOLA,exp,4,4,exp,no,55,mixed,f,472,loss,1,3034,0.6,10,0.4,40,HP-LP,f,1951,HP,win,6,16,LP,no,-0.9090909090909091,0.5,-0.5,1
10,39,male,ESPAÑOLA,exp,4,6,exp,no,375,mixed,j,367,loss,1,3008,0.7,30,0.3,40,LP-HP,j,407,HP,win,21,12,HP,yes,0.5454545454545454,0.5,-0.5,1
10,39,male,ESPAÑOLA,exp,4,8,exp,yes,119,mixed,f,272,win,7,2720,0.6,30,0.4,50,LP-HP,j,2079,HP,no-win,18,20,LP,no,-0.10526315789473684,-0.5,0.5,1
10,39,male,ESPAÑOLA,exp,4,10,exp,yes,32,mixed,f,351,loss,10,250,0.6,40,0.4,50,LP-HP,f,328,LP,win,24,20,HP,no,0.18181818181818182,0.5,0.5,0
10,39,male,ESPAÑOLA,exp,4,12,exp,no,714,mixed,f,335,loss,1,2312,0.8,10,0.2,20,LP-HP,j,1191,HP,win,8,4,HP,yes,0.6666666666666666,0.5,-0.5,1
10,39,male,ESPAÑOLA,exp,4,14,exp,yes,367,mixed,j,415,loss,8,472,0.7,30,0.3,40,HP-LP,j,431,LP,win,21,12,HP,no,0.5454545454545454,0.5,0.5,0
10,39,male,ESPAÑOLA,exp,4,16,catch,no,432,mixed,j,695,win,1,135,0.8,0,0.3,20,LP-HP,f,319,LP,no-win,0,6,LP,yes,-2,-0.5,-0.5,0
10,39,male,ESPAÑOLA,exp,4,18,catch,yes,280,mixed,f,360,win,7,919,0.8,0,0.3,20,HP-LP,f,519,HP,no-win,0,6,LP,no,-2,-0.5,0.5,1
10,39,male,ESPAÑOLA,exp,4,20,exp,yes,23,mixed,f,464,loss,7,90,0.6,10,0.4,40,HP-LP,j,551,LP,no-win,6,16,LP,yes,-0.9090909090909091,0.5,0.5,0
10,39,male,ESPAÑOLA,exp,4,22,exp,yes,1288,mixed,j,927,win,2,11691,0.6,10,0.4,40,LP-HP,j,1191,HP,win,6,16,LP,no,-0.9090909090909091,-0.5,0.5,1
10,39,male,ESPAÑOLA,exp,4,24,catch,yes,103,mixed,j,512,win,6,715,0.8,40,0.2,20,LP-HP,f,375,LP,no-win,32,4,HP,no,1.5555555555555556,-0.5,0.5,0
10,39,male,ESPAÑOLA,exp,4,26,exp,no,1879,mixed,j,679,loss,1,905,0.8,10,0.2,20,HP-LP,f,1207,HP,win,8,4,HP,yes,0.6666666666666666,0.5,-0.5,1
10,39,male,ESPAÑOLA,exp,4,28,exp,no,138,mixed,j,864,loss,0,3859,0.7,10,0.3,30,HP-LP,f,1367,HP,no-win,7,9,LP,no,-0.25,0.5,-0.5,1
10,39,male,ESPAÑOLA,exp,4,30,exp,yes,1089,mixed,j,328,win,4,3520,0.6,30,0.4,50,HP-LP,f,1143,HP,no-win,18,20,LP,no,-0.10526315789473684,-0.5,0.5,1
10,39,male,ESPAÑOLA,exp,4,32,exp,no,129,mixed,j,552,win,1,1904,0.6,20,0.4,50,LP-HP,f,672,LP,no-win,12,20,LP,yes,-0.5,-0.5,-0.5,0
10,39,male,ESPAÑOLA,exp,4,34,exp,no,360,mixed,j,791,win,1,15192,0.6,30,0.4,50,HP-LP,f,1463,HP,win,18,20,LP,no,-0.10526315789473684,-0.5,-0.5,1
10,39,male,ESPAÑOLA,exp,4,36,catch,yes,412,mixed,f,583,loss,5,303,0.8,40,0.2,20,HP-LP,f,1479,HP,win,32,4,HP,yes,1.5555555555555556,0.5,0.5,1
10,39,male,ESPAÑOLA,exp,4,38,catch,no,25,mixed,f,511,win,0,168,0.8,40,0.2,20,HP-LP,f,1368,HP,win,32,4,HP,yes,1.5555555555555556,-0.5,-0.5,1
10,39,male,ESPAÑOLA,exp,4,40,exp,no,14,mixed,f,1223,loss,1,1096,0.7,30,0.3,40,HP-LP,f,1887,HP,win,21,12,HP,yes,0.5454545454545454,0.5,-0.5,1
10,39,male,ESPAÑOLA,exp,4,42,exp,yes,695,mixed,j,815,loss,7,1808,0.7,20,0.3,30,LP-HP,j,1647,HP,win,14,9,HP,yes,0.43478260869565216,0.5,0.5,1
10,39,male,ESPAÑOLA,exp,4,44,exp,yes,23176,mixed,j,1496,loss,3,1257,0.8,20,0.2,30,LP-HP,j,1103,HP,win,16,6,HP,yes,0.9090909090909091,0.5,0.5,1
10,39,male,ESPAÑOLA,exp,4,46,catch,no,298,mixed,f,359,loss,1,184,0.7,30,0.3,10,LP-HP,j,1719,HP,win,21,3,HP,yes,1.5,0.5,-0.5,1
10,39,male,ESPAÑOLA,exp,4,48,exp,no,871,mixed,f,648,loss,1,3600,0.6,40,0.4,50,HP-LP,j,1351,LP,win,24,20,HP,no,0.18181818181818182,0.5,-0.5,0
10,39,male,ESPAÑOLA,exp,4,50,exp,yes,359,mixed,f,768,win,0,32782,0.6,40,0.4,50,LP-HP,j,1343,HP,no-win,24,20,HP,yes,0.18181818181818182,-0.5,0.5,1
10,39,male,ESPAÑOLA,exp,4,52,exp,yes,1352,mixed,f,1415,loss,3,1857,0.7,30,0.3,40,LP-HP,j,1207,HP,no-win,21,12,HP,yes,0.5454545454545454,0.5,0.5,1
10,39,male,ESPAÑOLA,exp,5,2,exp,no,1086,mixed,f,1199,loss,1,385,0.8,20,0.2,30,LP-HP,f,256,LP,no-win,16,6,HP,no,0.9090909090909091,0.5,-0.5,0
10,39,male,ESPAÑOLA,exp,5,4,catch,yes,735,mixed,f,135,loss,14,56,0.7,0,0.4,30,HP-LP,f,176,HP,no-win,0,12,LP,no,-2,0.5,0.5,1
10,39,male,ESPAÑOLA,exp,5,6,exp,no,112,mixed,f,248,win,2,537,0.7,20,0.3,30,LP-HP,j,39,HP,no-win,14,9,HP,yes,0.43478260869565216,-0.5,-0.5,1
10,39,male,ESPAÑOLA,exp,5,8,exp,yes,207,mixed,j,96,loss,15,272,0.8,20,0.2,30,HP-LP,j,311,LP,no-win,16,6,HP,no,0.9090909090909091,0.5,0.5,0
10,39,male,ESPAÑOLA,exp,5,10,exp,yes,167,mixed,j,87,win,16,279,0.8,20,0.2,30,HP-LP,j,79,LP,no-win,16,6,HP,no,0.9090909090909091,-0.5,0.5,0
10,39,male,ESPAÑOLA,exp,5,12,exp,yes,728,mixed,f,911,loss,14,248,0.7,10,0.3,50,HP-LP,f,255,HP,win,7,15,LP,no,-0.7272727272727273,0.5,0.5,1
10,39,male,ESPAÑOLA,exp,5,14,exp,yes,103,mixed,f,784,loss,7,496,0.6,20,0.4,50,LP-HP,f,239,LP,win,12,20,LP,yes,-0.5,0.5,0.5,0
10,39,male,ESPAÑOLA,exp,5,16,catch,yes,585,mixed,f,231,loss,13,467,0.7,30,0.3,10,HP-LP,j,199,LP,no-win,21,3,HP,no,1.5,0.5,0.5,0
10,39,male,ESPAÑOLA,exp,5,18,exp,no,44024,mixed,f,1239,win,1,192,0.8,20,0.2,30,LP-HP,f,1528,LP,no-win,16,6,HP,no,0.9090909090909091,-0.5,-0.5,0
10,39,male,ESPAÑOLA,exp,5,20,catch,yes,447,mixed,f,151,loss,12,133,0.8,0,0.3,20,LP-HP,f,255,LP,no-win,0,6,LP,yes,-2,0.5,0.5,0
10,39,male,ESPAÑOLA,exp,5,22,exp,yes,895,mixed,f,751,win,6,15030,0.8,10,0.2,20,HP-LP,j,487,LP,win,8,4,HP,no,0.6666666666666666,-0.5,0.5,0
10,39,male,ESPAÑOLA,exp,5,24,exp,yes,439,mixed,j,544,loss,8,670,0.6,10,0.4,40,LP-HP,f,423,LP,win,6,16,LP,yes,-0.9090909090909091,0.5,0.5,0
10,39,male,ESPAÑOLA,exp,5,26,exp,no,841,mixed,f,384,win,0,1048,0.6,40,0.4,50,HP-LP,f,215,HP,win,24,20,HP,yes,0.18181818181818182,-0.5,-0.5,1
10,39,male,ESPAÑOLA,exp,5,28,catch,no,167,mixed,f,183,loss,1,920,0.6,0,0.2,40,HP-LP,j,376,LP,no-win,0,8,LP,yes,-2,0.5,-0.5,0
10,39,male,ESPAÑOLA,exp,5,30,exp,no,2266,mixed,f,135,win,0,2553,0.7,10,0.3,30,LP-HP,j,151,HP,win,7,9,LP,no,-0.25,-0.5,-0.5,1
10,39,male,ESPAÑOLA,exp,5,32,exp,yes,5,mixed,j,543,win,9,4992,0.7,20,0.3,30,LP-HP,f,511,LP,no-win,14,9,HP,no,0.43478260869565216,-0.5,0.5,0
10,39,male,ESPAÑOLA,exp,5,34,exp,no,176,mixed,f,352,win,1,201,0.6,30,0.4,50,LP-HP,f,239,LP,no-win,18,20,LP,yes,-0.10526315789473684,-0.5,-0.5,0
10,39,male,ESPAÑOLA,exp,5,36,exp,no,3791,mixed,f,744,win,0,168,0.6,10,0.4,40,HP-LP,f,231,HP,no-win,6,16,LP,no,-0.9090909090909091,-0.5,-0.5,1
10,39,male,ESPAÑOLA,exp,5,38,exp,no,1161,mixed,f,456,loss,1,4320,0.6,20,0.4,50,HP-LP,j,463,LP,win,12,20,LP,yes,-0.5,0.5,-0.5,0
10,39,male,ESPAÑOLA,exp,5,40,catch,no,968,mixed,j,15,win,1,721,0.7,30,0.3,10,HP-LP,j,375,LP,win,21,3,HP,no,1.5,-0.5,-0.5,0
10,39,male,ESPAÑOLA,exp,5,42,exp,no,404,mixed,j,279,win,1,193,0.8,10,0.2,20,LP-HP,j,2015,HP,win,8,4,HP,yes,0.6666666666666666,-0.5,-0.5,1
10,39,male,ESPAÑOLA,exp,5,44,exp,yes,1752,mixed,f,895,win,7,872,0.8,10,0.2,20,LP-HP,f,575,LP,no-win,8,4,HP,no,0.6666666666666666,-0.5,0.5,0
10,39,male,ESPAÑOLA,exp,5,46,exp,no,1560,mixed,j,743,win,0,859,0.8,10,0.2,20,HP-LP,f,1543,HP,win,8,4,HP,yes,0.6666666666666666,-0.5,-0.5,1
10,39,male,ESPAÑOLA,exp,5,48,exp,yes,640,mixed,f,639,win,9,992,0.7,30,0.3,40,HP-LP,j,447,LP,no-win,21,12,HP,no,0.5454545454545454,-0.5,0.5,0
10,39,male,ESPAÑOLA,exp,5,50,exp,no,808,mixed,j,1184,loss,0,193,0.6,30,0.4,50,HP-LP,f,312,HP,win,18,20,LP,no,-0.10526315789473684,0.5,-0.5,1
10,39,male,ESPAÑOLA,exp,5,52,catch,yes,2416,mixed,j,479,win,8,564,0.8,50,0.2,30,HP-LP,f,1903,HP,win,40,6,HP,yes,1.4782608695652173,-0.5,0.5,1
10,39,male,ESPAÑOLA,exp,6,2,exp,yes,807,mixed,j,792,win,2,433,0.7,10,0.3,50,HP-LP,f,271,HP,win,7,15,LP,no,-0.7272727272727273,-0.5,0.5,1
10,39,male,ESPAÑOLA,exp,6,4,catch,yes,514,mixed,f,671,loss,0,4471,0.8,50,0.2,30,LP-HP,j,975,HP,win,40,6,HP,yes,1.4782608695652173,0.5,0.5,1
10,39,male,ESPAÑOLA,exp,6,6,exp,no,700,mixed,f,439,loss,1,376,0.7,20,0.3,30,LP-HP,j,1424,HP,win,14,9,HP,yes,0.43478260869565216,0.5,-0.5,1
10,39,male,ESPAÑOLA,exp,6,8,catch,no,2464,mixed,j,615,win,0,968,0.6,0,0.2,40,LP-HP,j,1455,HP,no-win,0,8,LP,no,-2,-0.5,-0.5,1
10,39,male,ESPAÑOLA,exp,6,10,exp,no,1040,mixed,j,671,win,0,665,0.7,30,0.3,40,LP-HP,j,1519,HP,win,21,12,HP,yes,0.5454545454545454,-0.5,-0.5,1
10,39,male,ESPAÑOLA,exp,6,12,catch,no,1976,mixed,j,615,loss,1,296,0.7,0,0.4,30,LP-HP,j,1231,HP,no-win,0,12,LP,no,-2,0.5,-0.5,1
10,39,male,ESPAÑOLA,exp,6,14,catch,no,102,mixed,j,511,loss,1,4665,0.8,40,0.2,20,LP-HP,j,1031,HP,win,32,4,HP,yes,1.5555555555555556,0.5,-0.5,1
10,39,male,ESPAÑOLA,exp,6,16,exp,no,34,mixed,j,335,win,0,160,0.7,10,0.3,30,HP-LP,f,408,HP,win,7,9,LP,no,-0.25,-0.5,-0.5,1
10,39,male,ESPAÑOLA,exp,6,18,exp,no,1571,mixed,j,784,loss,0,825,0.6,40,0.4,50,LP-HP,j,559,HP,win,24,20,HP,yes,0.18181818181818182,0.5,-0.5,1
10,39,male,ESPAÑOLA,exp,6,20,catch,yes,848,mixed,j,615,win,3,4032,0.7,0,0.4,30,LP-HP,j,1415,HP,no-win,0,12,LP,no,-2,-0.5,0.5,1
10,39,male,ESPAÑOLA,exp,6,22,exp,no,144,mixed,j,576,loss,0,1641,0.7,20,0.3,30,HP-LP,j,655,LP,win,14,9,HP,no,0.43478260869565216,0.5,-0.5,0
10,39,male,ESPAÑOLA,exp,6,24,exp,yes,1231,mixed,j,519,loss,5,24,0.6,40,0.4,50,HP-LP,j,719,LP,win,24,20,HP,no,0.18181818181818182,0.5,0.5,0
10,39,male,ESPAÑOLA,exp,6,26,exp,no,1272,mixed,j,543,loss,0,1521,0.7,10,0.3,50,LP-HP,j,1367,HP,win,7,15,LP,no,-0.7272727272727273,0.5,-0.5,1
10,39,male,ESPAÑOLA,exp,6,28,exp,yes,8960,mixed,j,383,loss,4,4298,0.6,30,0.4,50,LP-HP,j,655,HP,no-win,18,20,LP,no,-0.10526315789473684,0.5,0.5,1
10,39,male,ESPAÑOLA,exp,6,30,exp,yes,880,mixed,j,576,win,3,840,0.7,20,0.3,30,HP-LP,f,1623,HP,win,14,9,HP,yes,0.43478260869565216,-0.5,0.5,1
10,39,male,ESPAÑOLA,exp,6,32,exp,no,570,mixed,j,1095,loss,0,1169,0.8,20,0.2,30,HP-LP,f,1991,HP,win,16,6,HP,yes,0.9090909090909091,0.5,-0.5,1
10,39,male,ESPAÑOLA,exp,6,34,exp,no,3912,mixed,j,495,win,1,5312,0.6,40,0.4,50,LP-HP,j,799,HP,no-win,24,20,HP,yes,0.18181818181818182,-0.5,-0.5,1
10,39,male,ESPAÑOLA,exp,6,36,exp,no,4184,mixed,j,599,win,1,3187,0.7,10,0.3,50,LP-HP,f,360,LP,win,7,15,LP,yes,-0.7272727272727273,-0.5,-0.5,0
10,39,male,ESPAÑOLA,exp,6,38,exp,yes,9564,mixed,j,400,win,5,1178,0.6,40,0.4,50,HP-LP,f,2239,HP,win,24,20,HP,yes,0.18181818181818182,-0.5,0.5,1
10,39,male,ESPAÑOLA,exp,6,40,exp,no,448,mixed,j,607,win,0,1993,0.6,20,0.4,50,HP-LP,f,1711,HP,win,12,20,LP,no,-0.5,-0.5,-0.5,1
10,39,male,ESPAÑOLA,exp,6,42,exp,no,5216,mixed,j,2024,win,0,2049,0.7,30,0.3,40,HP-LP,f,1567,HP,win,21,12,HP,yes,0.5454545454545454,-0.5,-0.5,1
10,39,male,ESPAÑOLA,exp,6,44,exp,yes,1768,mixed,j,671,win,4,593,0.7,10,0.3,30,LP-HP,j,639,HP,win,7,9,LP,no,-0.25,-0.5,0.5,1
10,39,male,ESPAÑOLA,exp,6,46,catch,yes,511,mixed,f,1152,loss,4,2760,0.6,0,0.2,40,LP-HP,j,743,HP,no-win,0,8,LP,no,-2,0.5,0.5,1
10,39,male,ESPAÑOLA,exp,6,48,exp,no,2842,mixed,f,784,loss,0,306,0.6,30,0.4,50,LP-HP,j,1463,HP,win,18,20,LP,no,-0.10526315789473684,0.5,-0.5,1
10,39,male,ESPAÑOLA,exp,6,50,exp,no,344,mixed,j,392,win,1,1588,0.7,10,0.3,50,HP-LP,j,799,LP,win,7,15,LP,yes,-0.7272727272727273,-0.5,-0.5,0
10,39,male,ESPAÑOLA,exp,6,52,exp,yes,224,mixed,f,848,win,2,1510,0.6,10,0.4,40,HP-LP,f,911,HP,win,6,16,LP,no,-0.9090909090909091,-0.5,0.5,1
100,25,female,Mexican,practice_game1,1,1,practice,na,1841,mixed,j,3471,loss,0,0,0,0,0,0,na,na,0,na,na,0,0,LP,no,NA,0.5,-0.5,0
100,25,female,Mexican,practice_game1,1,2,practice,na,1672,mixed,j,1302,win,0,0,0,0,0,0,na,na,0,na,na,0,0,LP,no,NA,-0.5,-0.5,0
100,25,female,Mexican,practice_game1,1,3,practice,na,1696,mixed,f,743,win,0,0,0,0,0,0,na,na,0,na,na,0,0,LP,no,NA,-0.5,-0.5,0
100,25,female,Mexican,practice_game1,1,4,practice,na,1104,mixed,f,566,loss,0,0,0,0,0,0,na,na,0,na,na,0,0,LP,no,NA,0.5,-0.5,0
100,25,female,Mexican,practice_game2,2,1,practice,na,0,na,na,0,na,0,967,0.8,10,0.2,20,LP-HP,j,2950,HP,win,8,4,HP,yes,0.6666666666666666,-0.5,-0.5,1
100,25,female,Mexican,practice_game2,2,2,practice,na,0,na,na,0,na,0,930,0.8,50,0.4,20,HP-LP,f,3142,HP,win,40,8,HP,yes,1.3333333333333333,-0.5,-0.5,1
100,25,female,Mexican,practice_game2,2,3,practice,na,0,na,na,0,na,0,642,0.8,20,0.2,30,HP-LP,f,1447,HP,win,16,6,HP,yes,0.9090909090909091,-0.5,-0.5,1
100,25,female,Mexican,practice_game2,2,4,practice,na,0,na,na,0,na,0,756,0.7,10,0.3,50,LP-HP,j,1678,HP,win,7,15,LP,no,-0.7272727272727273,-0.5,-0.5,1
100,25,female,Mexican,practice_game2,2,5,practice,na,0,na,na,0,na,0,982,0.6,10,0.4,40,HP-LP,j,2870,LP,no-win,6,16,LP,yes,-0.9090909090909091,-0.5,-0.5,0
100,25,female,Mexican,exp,3,2,exp,yes,1532,mixed,j,1342,win,0,914,0.8,20,0.2,30,HP-LP,f,1478,HP,win,16,6,HP,yes,0.9090909090909091,-0.5,0.5,1
100,25,female,Mexican,exp,3,4,exp,yes,1017,mixed,j,1551,win,0,767,0.7,10,0.3,30,LP-HP,j,1006,HP,win,7,9,LP,no,-0.25,-0.5,0.5,1
100,25,female,Mexican,exp,3,6,exp,no,885,mixed,f,999,loss,0,1050,0.6,20,0.4,50,LP-HP,j,1383,HP,no-win,12,20,LP,no,-0.5,0.5,-0.5,1
100,25,female,Mexican,exp,3,8,exp,yes,908,mixed,j,1046,loss,0,923,0.7,20,0.3,30,LP-HP,j,894,HP,win,14,9,HP,yes,0.43478260869565216,0.5,0.5,1
100,25,female,Mexican,exp,3,10,exp,yes,877,mixed,f,1078,win,0,519,0.6,30,0.4,50,HP-LP,f,1118,HP,win,18,20,LP,no,-0.10526315789473684,-0.5,0.5,1
100,25,female,Mexican,exp,3,12,exp,yes,715,mixed,j,1302,loss,0,713,0.8,10,0.2,20,HP-LP,f,894,HP,win,8,4,HP,yes,0.6666666666666666,0.5,0.5,1
100,25,female,Mexican,exp,3,14,exp,no,835,mixed,j,1222,loss,0,800,0.6,10,0.4,40,HP-LP,f,1358,HP,no-win,6,16,LP,no,-0.9090909090909091,0.5,-0.5,1
100,25,female,Mexican,exp,3,16,exp,yes,704,mixed,f,1999,loss,0,463,0.6,10,0.4,40,HP-LP,f,1118,HP,no-win,6,16,LP,no,-0.9090909090909091,0.5,0.5,1
100,25,female,Mexican,exp,3,18,exp,no,492,mixed,j,3033,loss,0,563,0.7,30,0.3,40,HP-LP,f,806,HP,win,21,12,HP,yes,0.5454545454545454,0.5,-0.5,1
100,25,female,Mexican,exp,3,20,catch,no,3452,mixed,j,1582,loss,0,709,0.8,0,0.3,20,LP-HP,f,1574,LP,win,0,6,LP,yes,-2,0.5,-0.5,0
100,25,female,Mexican,exp,3,22,exp,no,648,mixed,j,1694,win,0,570,0.6,20,0.4,50,HP-LP,f,1310,HP,win,12,20,LP,no,-0.5,-0.5,-0.5,1
100,25,female,Mexican,exp,3,24,exp,yes,602,mixed,f,1165,loss,0,460,0.6,10,0.4,40,LP-HP,f,1918,LP,no-win,6,16,LP,yes,-0.9090909090909091,0.5,0.5,0
100,25,female,Mexican,exp,3,26,exp,yes,739,mixed,j,831,loss,0,582,0.7,10,0.3,50,HP-LP,f,606,HP,win,7,15,LP,no,-0.7272727272727273,0.5,0.5,1
100,25,female,Mexican,exp,3,28,catch,no,2783,mixed,j,1654,win,0,625,0.7,30,0.3,10,LP-HP,j,1014,HP,win,21,3,HP,yes,1.5,-0.5,-0.5,1
100,25,female,Mexican,exp,3,30,catch,no,575,mixed,j,1215,loss,0,477,0.7,0,0.4,30,HP-LP,j,1102,LP,no-win,0,12,LP,yes,-2,0.5,-0.5,0
100,25,female,Mexican,exp,3,32,exp,yes,720,mixed,f,729,win,0,845,0.6,40,0.4,50,HP-LP,f,2086,HP,win,24,20,HP,yes,0.18181818181818182,-0.5,0.5,1
100,25,female,Mexican,exp,3,34,exp,no,1616,mixed,j,1159,win,0,538,0.8,10,0.2,20,HP-LP,f,1430,HP,win,8,4,HP,yes,0.6666666666666666,-0.5,-0.5,1
100,25,female,Mexican,exp,3,36,exp,no,538,mixed,j,1390,loss,0,478,0.8,10,0.2,20,HP-LP,f,457,HP,win,8,4,HP,yes,0.6666666666666666,0.5,-0.5,1
100,25,female,Mexican,exp,3,38,catch,no,803,mixed,f,975,loss,0,469,0.7,30,0.3,10,HP-LP,f,831,HP,no-win,21,3,HP,yes,1.5,0.5,-0.5,1
100,25,female,Mexican,exp,3,40,exp,no,425,mixed,j,686,loss,0,136,0.6,20,0.4,50,HP-LP,j,1390,LP,win,12,20,LP,yes,-0.5,0.5,-0.5,0
100,25,female,Mexican,exp,3,42,catch,no,901,mixed,j,1853,win,0,516,0.8,50,0.2,30,LP-HP,j,1030,HP,win,40,6,HP,yes,1.4782608695652173,-0.5,-0.5,1
100,25,female,Mexican,exp,3,44,catch,no,661,mixed,f,1183,win,0,615,0.6,0,0.2,40,HP-LP,j,1022,LP,no-win,0,8,LP,yes,-2,-0.5,-0.5,0
100,25,female,Mexican,exp,3,46,exp,no,553,mixed,j,806,win,0,502,0.6,10,0.4,40,LP-HP,f,1487,LP,win,6,16,LP,yes,-0.9090909090909091,-0.5,-0.5,0
100,25,female,Mexican,exp,3,48,exp,yes,724,mixed,f,654,win,0,634,0.7,20,0.3,30,LP-HP,j,1910,HP,win,14,9,HP,yes,0.43478260869565216,-0.5,0.5,1
100,25,female,Mexican,exp,3,50,exp,no,644,mixed,j,1951,loss,0,978,0.7,10,0.3,50,HP-LP,f,2774,HP,win,7,15,LP,no,-0.7272727272727273,0.5,-0.5,1
100,25,female,Mexican,exp,3,52,exp,yes,2569,mixed,f,2526,loss,0,984,0.7,10,0.3,30,HP-LP,f,2838,HP,no-win,7,9,LP,no,-0.25,0.5,0.5,1
100,25,female,Mexican,exp,4,2,exp,no,2764,mixed,j,1207,loss,0,637,0.8,20,0.2,30,HP-LP,f,1207,HP,win,16,6,HP,yes,0.9090909090909091,0.5,-0.5,1
100,25,female,Mexican,exp,4,4,catch,yes,945,mixed,j,1007,loss,0,344,0.8,50,0.2,30,LP-HP,j,1030,HP,win,40,6,HP,yes,1.4782608695652173,0.5,0.5,1
100,25,female,Mexican,exp,4,6,exp,yes,25354,mixed,j,3062,loss,0,1494,0.7,10,0.3,30,LP-HP,j,2638,HP,win,7,9,LP,no,-0.25,0.5,0.5,1
100,25,female,Mexican,exp,4,8,exp,no,1945,mixed,f,1270,win,0,13249,0.7,20,0.3,30,HP-LP,f,1958,HP,win,14,9,HP,yes,0.43478260869565216,-0.5,-0.5,1
100,25,female,Mexican,exp,4,10,exp,yes,580,mixed,f,598,loss,0,672,0.6,40,0.4,50,HP-LP,f,1542,HP,no-win,24,20,HP,yes,0.18181818181818182,0.5,0.5,1
100,25,female,Mexican,exp,4,12,catch,yes,1070,mixed,j,1623,win,0,871,0.6,0,0.2,40,LP-HP,f,1358,LP,no-win,0,8,LP,yes,-2,-0.5,0.5,0
100,25,female,Mexican,exp,4,14,exp,yes,1093,mixed,f,1207,loss,0,793,0.6,30,0.4,50,LP-HP,f,1470,LP,no-win,18,20,LP,yes,-0.10526315789473684,0.5,0.5,0
100,25,female,Mexican,exp,4,16,exp,no,625,mixed,j,910,loss,0,561,0.7,10,0.3,30,LP-HP,j,1494,HP,win,7,9,LP,no,-0.25,0.5,-0.5,1
100,25,female,Mexican,exp,4,18,exp,yes,2934,mixed,f,952,loss,0,661,0.6,30,0.4,50,HP-LP,f,1958,HP,no-win,18,20,LP,no,-0.10526315789473684,0.5,0.5,1
100,25,female,Mexican,exp,4,20,exp,no,1879,mixed,f,1518,win,0,587,0.6,40,0.4,50,HP-LP,f,966,HP,no-win,24,20,HP,yes,0.18181818181818182,-0.5,-0.5,1
100,25,female,Mexican,exp,4,22,exp,no,3025,mixed,f,1598,loss,0,758,0.7,20,0.3,30,HP-LP,f,1718,HP,win,14,9,HP,yes,0.43478260869565216,0.5,-0.5,1
100,25,female,Mexican,exp,4,24,exp,yes,755,mixed,j,806,loss,0,594,0.8,10,0.2,20,LP-HP,j,1166,HP,win,8,4,HP,yes,0.6666666666666666,0.5,0.5,1
100,25,female,Mexican,exp,4,26,catch,yes,601,mixed,j,926,loss,0,600,0.8,0,0.3,20,HP-LP,j,990,LP,no-win,0,6,LP,yes,-2,0.5,0.5,0
100,25,female,Mexican,exp,4,28,exp,no,823,mixed,f,751,loss,0,623,0.8,20,0.2,30,LP-HP,j,977,HP,win,16,6,HP,yes,0.9090909090909091,0.5,-0.5,1
100,25,female,Mexican,exp,4,30,exp,yes,509,mixed,f,975,win,0,647,0.7,30,0.3,40,HP-LP,f,1190,HP,win,21,12,HP,yes,0.5454545454545454,-0.5,0.5,1
100,25,female,Mexican,exp,4,32,catch,yes,685,mixed,j,886,loss,0,506,0.7,0,0.4,30,LP-HP,f,854,LP,no-win,0,12,LP,yes,-2,0.5,0.5,0
100,25,female,Mexican,exp,4,34,catch,yes,479,mixed,j,598,win,0,771,0.7,30,0.3,10,HP-LP,f,694,HP,no-win,21,3,HP,yes,1.5,-0.5,0.5,1
100,25,female,Mexican,exp,4,36,exp,no,526,mixed,j,558,win,0,568,0.7,30,0.3,40,HP-LP,f,1462,HP,win,21,12,HP,yes,0.5454545454545454,-0.5,-0.5,1
100,25,female,Mexican,exp,4,38,exp,no,505,mixed,f,1022,win,0,538,0.7,20,0.3,30,LP-HP,j,950,HP,no-win,14,9,HP,yes,0.43478260869565216,-0.5,-0.5,1
100,25,female,Mexican,exp,4,40,catch,no,516,mixed,f,846,win,0,616,0.8,40,0.2,20,HP-LP,f,846,HP,win,32,4,HP,yes,1.5555555555555556,-0.5,-0.5,1
100,25,female,Mexican,exp,4,42,exp,no,501,mixed,f,518,win,0,539,0.6,10,0.4,40,HP-LP,f,1542,HP,no-win,6,16,LP,no,-0.9090909090909091,-0.5,-0.5,1
100,25,female,Mexican,exp,4,44,exp,no,514,mixed,j,501,win,0,612,0.6,30,0.4,50,LP-HP,j,1679,HP,win,18,20,LP,no,-0.10526315789473684,-0.5,-0.5,1
100,25,female,Mexican,exp,4,46,exp,yes,536,mixed,j,671,win,0,600,0.7,10,0.3,30,HP-LP,f,1006,HP,no-win,7,9,LP,no,-0.25,-0.5,0.5,1
100,25,female,Mexican,exp,4,48,exp,no,454,mixed,j,958,loss,0,570,0.8,10,0.2,20,LP-HP,j,966,HP,win,8,4,HP,yes,0.6666666666666666,0.5,-0.5,1
100,25,female,Mexican,exp,4,50,exp,no,459,mixed,f,1062,loss,0,698,0.6,40,0.4,50,HP-LP,f,1462,HP,win,24,20,HP,yes,0.18181818181818182,0.5,-0.5,1
100,25,female,Mexican,exp,4,52,exp,yes,601,mixed,j,2783,loss,0,527,0.7,30,0.3,40,LP-HP,j,1447,HP,win,21,12,HP,yes,0.5454545454545454,0.5,0.5,1
100,25,female,Mexican,exp,5,2,exp,yes,1516,mixed,f,999,loss,0,798,0.7,20,0.3,30,HP-LP,f,1246,HP,no-win,14,9,HP,yes,0.43478260869565216,0.5,0.5,1
100,25,female,Mexican,exp,5,4,exp,yes,572,mixed,j,375,win,0,499,0.7,10,0.3,50,LP-HP,j,1078,HP,win,7,15,LP,no,-0.7272727272727273,-0.5,0.5,1
100,25,female,Mexican,exp,5,6,exp,yes,693,mixed,j,1102,win,0,615,0.6,10,0.4,40,LP-HP,j,966,HP,no-win,6,16,LP,no,-0.9090909090909091,-0.5,0.5,1
100,25,female,Mexican,exp,5,8,exp,no,539,mixed,f,1782,loss,0,594,0.7,20,0.3,30,LP-HP,j,918,HP,no-win,14,9,HP,yes,0.43478260869565216,0.5,-0.5,1
100,25,female,Mexican,exp,5,10,exp,yes,543,mixed,j,1183,loss,0,1051,0.6,40,0.4,50,LP-HP,j,1358,HP,win,24,20,HP,yes,0.18181818181818182,0.5,0.5,1
100,25,female,Mexican,exp,5,12,exp,yes,933,mixed,f,1046,loss,0,738,0.7,30,0.3,40,HP-LP,f,1062,HP,win,21,12,HP,yes,0.5454545454545454,0.5,0.5,1
100,25,female,Mexican,exp,5,14,exp,no,875,mixed,j,870,win,0,531,0.6,30,0.4,50,HP-LP,f,1239,HP,no-win,18,20,LP,no,-0.10526315789473684,-0.5,-0.5,1
100,25,female,Mexican,exp,5,16,exp,no,495,mixed,j,1110,win,0,696,0.7,30,0.3,40,LP-HP,j,966,HP,no-win,21,12,HP,yes,0.5454545454545454,-0.5,-0.5,1
100,25,female,Mexican,exp,5,18,exp,no,1040,mixed,f,809,win,0,704,0.7,10,0.3,50,HP-LP,f,975,HP,win,7,15,LP,no,-0.7272727272727273,-0.5,-0.5,1
100,25,female,Mexican,exp,5,20,catch,no,884,mixed,j,807,win,0,1401,0.8,0,0.3,20,HP-LP,j,942,LP,no-win,0,6,LP,yes,-2,-0.5,-0.5,0
100,25,female,Mexican,exp,5,22,exp,yes,513,mixed,f,782,loss,0,1849,0.7,10,0.3,50,LP-HP,j,1558,HP,no-win,7,15,LP,no,-0.7272727272727273,0.5,0.5,1
100,25,female,Mexican,exp,5,24,exp,no,533,mixed,j,742,win,0,1771,0.8,20,0.2,30,HP-LP,f,702,HP,win,16,6,HP,yes,0.9090909090909091,-0.5,-0.5,1
100,25,female,Mexican,exp,5,26,catch,no,538,mixed,f,1391,loss,0,5594,0.6,0,0.2,40,LP-HP,f,1222,LP,win,0,8,LP,yes,-2,0.5,-0.5,0
100,25,female,Mexican,exp,5,28,exp,no,1927,mixed,j,822,win,0,7678,0.7,10,0.3,30,LP-HP,f,1342,LP,no-win,7,9,LP,yes,-0.25,-0.5,-0.5,0
100,25,female,Mexican,exp,5,30,catch,no,575,mixed,j,598,win,0,570,0.7,0,0.4,30,LP-HP,f,1052,LP,no-win,0,12,LP,yes,-2,-0.5,-0.5,0
100,25,female,Mexican,exp,5,32,exp,yes,451,mixed,f,822,win,0,776,0.7,20,0.3,30,HP-LP,f,726,HP,win,14,9,HP,yes,0.43478260869565216,-0.5,0.5,1
100,25,female,Mexican,exp,5,34,exp,yes,489,mixed,j,574,win,1,491,0.6,40,0.4,50,LP-HP,j,1215,HP,no-win,24,20,HP,yes,0.18181818181818182,-0.5,0.5,1
100,25,female,Mexican,exp,5,36,exp,yes,527,mixed,f,749,win,0,634,0.7,30,0.3,40,LP-HP,j,998,HP,no-win,21,12,HP,yes,0.5454545454545454,-0.5,0.5,1
100,25,female,Mexican,exp,5,38,exp,no,614,mixed,f,582,loss,0,593,0.6,10,0.4,40,LP-HP,j,1150,HP,no-win,6,16,LP,no,-0.9090909090909091,0.5,-0.5,1
100,25,female,Mexican,exp,5,40,exp,yes,673,mixed,f,678,win,0,539,0.6,20,0.4,50,HP-LP,f,1094,HP,no-win,12,20,LP,no,-0.5,-0.5,0.5,1
100,25,female,Mexican,exp,5,42,exp,no,506,mixed,j,574,loss,0,495,0.6,30,0.4,50,HP-LP,f,1038,HP,win,18,20,LP,no,-0.10526315789473684,0.5,-0.5,1
100,25,female,Mexican,exp,5,44,catch,yes,442,mixed,j,614,win,0,665,0.8,50,0.2,30,HP-LP,f,838,HP,win,40,6,HP,yes,1.4782608695652173,-0.5,0.5,1
100,25,female,Mexican,exp,5,46,catch,no,762,mixed,j,870,loss,0,503,0.8,40,0.2,20,LP-HP,j,807,HP,win,32,4,HP,yes,1.5555555555555556,0.5,-0.5,1
100,25,female,Mexican,exp,5,48,exp,no,486,mixed,f,758,win,0,577,0.8,20,0.2,30,LP-HP,j,886,HP,win,16,6,HP,yes,0.9090909090909091,-0.5,-0.5,1
100,25,female,Mexican,exp,5,50,exp,no,434,mixed,j,932,win,0,500,0.7,10,0.3,50,LP-HP,j,878,HP,win,7,15,LP,no,-0.7272727272727273,-0.5,-0.5,1
100,25,female,Mexican,exp,5,52,catch,yes,380,mixed,f,654,win,0,527,0.7,0,0.4,30,HP-LP,j,758,LP,no-win,0,12,LP,yes,-2,-0.5,0.5,0
100,25,female,Mexican,exp,6,2,exp,yes,835,mixed,f,846,win,0,531,0.8,10,0.2,20,HP-LP,f,798,HP,win,8,4,HP,yes,0.6666666666666666,-0.5,0.5,1
100,25,female,Mexican,exp,6,4,exp,yes,397,mixed,f,910,loss,0,895,0.6,20,0.4,50,LP-HP,j,1062,HP,win,12,20,LP,no,-0.5,0.5,0.5,1
100,25,female,Mexican,exp,6,6,catch,yes,668,mixed,f,1110,loss,0,499,0.8,40,0.2,20,HP-LP,f,798,HP,win,32,4,HP,yes,1.5555555555555556,0.5,0.5,1
100,25,female,Mexican,exp,6,8,catch,yes,605,mixed,j,518,win,0,604,0.8,40,0.2,20,LP-HP,j,758,HP,no-win,32,4,HP,yes,1.5555555555555556,-0.5,0.5,1
100,25,female,Mexican,exp,6,10,exp,yes,468,mixed,j,646,win,1,437,0.6,10,0.4,40,HP-LP,j,1998,LP,no-win,6,16,LP,yes,-0.9090909090909091,-0.5,0.5,0
100,25,female,Mexican,exp,6,12,exp,yes,557,mixed,f,726,win,0,461,0.8,10,0.2,20,LP-HP,j,726,HP,no-win,8,4,HP,yes,0.6666666666666666,-0.5,0.5,1
100,25,female,Mexican,exp,6,14,exp,no,417,mixed,j,606,loss,0,511,0.7,10,0.3,30,HP-LP,f,1022,HP,win,7,9,LP,no,-0.25,0.5,-0.5,1
100,25,female,Mexican,exp,6,16,exp,no,540,mixed,f,1288,win,0,461,0.6,40,0.4,50,LP-HP,j,966,HP,win,24,20,HP,yes,0.18181818181818182,-0.5,-0.5,1
100,25,female,Mexican,exp,6,18,catch,yes,447,mixed,j,567,loss,0,437,0.7,30,0.3,10,LP-HP,j,790,HP,win,21,3,HP,yes,1.5,0.5,0.5,1
100,25,female,Mexican,exp,6,20,exp,yes,508,mixed,f,927,loss,0,345,0.6,20,0.4,50,HP-LP,f,774,HP,no-win,12,20,LP,no,-0.5,0.5,0.5,1
100,25,female,Mexican,exp,6,22,exp,yes,444,mixed,f,862,win,0,453,0.8,20,0.2,30,LP-HP,j,966,HP,win,16,6,HP,yes,0.9090909090909091,-0.5,0.5,1
100,25,female,Mexican,exp,6,24,exp,no,519,mixed,f,870,win,0,485,0.7,10,0.3,30,HP-LP,f,1262,HP,win,7,9,LP,no,-0.25,-0.5,-0.5,1
100,25,female,Mexican,exp,6,26,exp,yes,496,mixed,j,550,win,0,363,0.6,20,0.4,50,LP-HP,j,978,HP,no-win,12,20,LP,no,-0.5,-0.5,0.5,1
100,25,female,Mexican,exp,6,28,catch,yes,640,mixed,f,902,loss,0,599,0.6,0,0.2,40,HP-LP,j,838,LP,no-win,0,8,LP,yes,-2,0.5,0.5,0
100,25,female,Mexican,exp,6,30,exp,no,534,mixed,j,838,win,0,543,0.8,10,0.2,20,LP-HP,j,846,HP,win,8,4,HP,yes,0.6666666666666666,-0.5,-0.5,1
100,25,female,Mexican,exp,6,32,exp,no,550,mixed,j,599,loss,0,491,0.6,30,0.4,50,LP-HP,j,1014,HP,win,18,20,LP,no,-0.10526315789473684,0.5,-0.5,1
100,25,female,Mexican,exp,6,34,exp,no,461,mixed,f,614,loss,0,43,0.7,30,0.3,40,LP-HP,j,1261,HP,win,21,12,HP,yes,0.5454545454545454,0.5,-0.5,1
100,25,female,Mexican,exp,6,36,exp,no,449,mixed,j,1166,loss,0,451,0.6,40,0.4,50,LP-HP,j,982,HP,win,24,20,HP,yes,0.18181818181818182,0.5,-0.5,1
100,25,female,Mexican,exp,6,38,catch,no,760,mixed,j,686,loss,0,475,0.8,50,0.2,30,HP-LP,f,742,HP,win,40,6,HP,yes,1.4782608695652173,0.5,-0.5,1
100,25,female,Mexican,exp,6,40,exp,yes,374,mixed,f,622,loss,0,577,0.8,20,0.2,30,LP-HP,j,638,HP,no-win,16,6,HP,yes,0.9090909090909091,0.5,0.5,1
100,25,female,Mexican,exp,6,42,exp,no,318,mixed,j,412,loss,0,850,0.7,10,0.3,50,LP-HP,j,942,HP,no-win,7,15,LP,no,-0.7272727272727273,0.5,-0.5,1
100,25,female,Mexican,exp,6,44,catch,yes,416,mixed,f,486,win,0,446,0.8,0,0.3,20,LP-HP,f,958,LP,no-win,0,6,LP,yes,-2,-0.5,0.5,0
100,25,female,Mexican,exp,6,46,exp,yes,5597,mixed,j,934,win,1,774,0.6,30,0.4,50,LP-HP,j,886,HP,no-win,18,20,LP,no,-0.10526315789473684,-0.5,0.5,1
100,25,female,Mexican,exp,6,48,exp,yes,1667,mixed,f,638,loss,0,683,0.8,20,0.2,30,HP-LP,f,886,HP,win,16,6,HP,yes,0.9090909090909091,0.5,0.5,1
100,25,female,Mexican,exp,6,50,exp,no,1222,mixed,j,678,win,0,711,0.6,20,0.4,50,LP-HP,j,1014,HP,no-win,12,20,LP,no,-0.5,-0.5,-0.5,1
100,25,female,Mexican,exp,6,52,exp,yes,525,mixed,j,754,win,0,804,0.7,10,0.3,50,HP-LP,j,1606,LP,no-win,7,15,LP,yes,-0.7272727272727273,-0.5,0.5,0
101,20,male,Mexican,practice_game1,1,1,practice,na,771,mixed,j,1464,win,0,0,0,0,0,0,na,na,0,na,na,0,0,LP,no,NA,-0.5,-0.5,0
101,20,male,Mexican,practice_game1,1,2,practice,na,1171,mixed,f,1042,loss,0,0,0,0,0,0,na,na,0,na,na,0,0,LP,no,NA,0.5,-0.5,0
101,20,male,Mexican,practice_game1,1,3,practice,na,823,mixed,j,787,win,0,0,0,0,0,0,na,na,0,na,na,0,0,LP,no,NA,-0.5,-0.5,0
101,20,male,Mexican,practice_game1,1,4,practice,na,824,mixed,j,589,loss,0,0,0,0,0,0,na,na,0,na,na,0,0,LP,no,NA,0.5,-0.5,0
101,20,male,Mexican,practice_game2,2,1,practice,na,0,na,na,0,na,0,471,0.7,10,0.3,50,LP-HP,f,2480,LP,no-win,7,15,LP,yes,-0.7272727272727273,-0.5,-0.5,0
101,20,male,Mexican,practice_game2,2,2,practice,na,0,na,na,0,na,0,736,0.6,10,0.4,40,HP-LP,f,1216,HP,win,6,16,LP,no,-0.9090909090909091,-0.5,-0.5,1
101,20,male,Mexican,practice_game2,2,3,practice,na,0,na,na,0,na,0,518,0.8,50,0.4,20,HP-LP,f,842,HP,win,40,8,HP,yes,1.3333333333333333,-0.5,-0.5,1
101,20,male,Mexican,practice_game2,2,4,practice,na,0,na,na,0,na,0,512,0.8,20,0.2,30,LP-HP,j,654,HP,win,16,6,HP,yes,0.9090909090909091,-0.5,-0.5,1
101,20,male,Mexican,practice_game2,2,5,practice,na,0,na,na,0,na,0,564,0.8,10,0.2,20,HP-LP,f,737,HP,no-win,8,4,HP,yes,0.6666666666666666,-0.5,-0.5,1
101,20,male,Mexican,exp,3,2,catch,no,1836,mixed,j,1071,loss,0,750,0.7,0,0.4,30,LP-HP,f,1395,LP,no-win,0,12,LP,yes,-2,0.5,-0.5,0
101,20,male,Mexican,exp,3,4,catch,yes,725,mixed,j,1208,loss,0,572,0.7,0,0.4,30,HP-LP,j,1099,LP,no-win,0,12,LP,yes,-2,0.5,0.5,0
101,20,male,Mexican,exp,3,6,exp,yes,588,mixed,f,590,win,0,655,0.7,20,0.3,30,HP-LP,f,779,HP,win,14,9,HP,yes,0.43478260869565216,-0.5,0.5,1
101,20,male,Mexican,exp,3,8,exp,no,548,mixed,f,687,loss,0,438,0.8,20,0.2,30,LP-HP,j,642,HP,win,16,6,HP,yes,0.9090909090909091,0.5,-0.5,1
101,20,male,Mexican,exp,3,10,catch,no,1224,mixed,j,706,win,0,350,0.7,30,0.3,10,LP-HP,j,788,HP,win,21,3,HP,yes,1.5,-0.5,-0.5,1
101,20,male,Mexican,exp,3,12,exp,no,324,mixed,f,700,loss,0,460,0.6,20,0.4,50,HP-LP,j,1100,LP,no-win,12,20,LP,yes,-0.5,0.5,-0.5,0
101,20,male,Mexican,exp,3,14,exp,no,349,mixed,f,364,loss,0,385,0.7,20,0.3,30,HP-LP,f,565,HP,win,14,9,HP,yes,0.43478260869565216,0.5,-0.5,1
101,20,male,Mexican,exp,3,16,exp,no,425,mixed,j,534,loss,0,353,0.8,20,0.2,30,HP-LP,f,431,HP,win,16,6,HP,yes,0.9090909090909091,0.5,-0.5,1
101,20,male,Mexican,exp,3,18,exp,yes,338,mixed,f,629,win,0,473,0.7,30,0.3,40,HP-LP,f,618,HP,win,21,12,HP,yes,0.5454545454545454,-0.5,0.5,1
101,20,male,Mexican,exp,3,20,exp,no,371,mixed,j,625,win,0,335,0.6,30,0.4,50,LP-HP,j,878,HP,no-win,18,20,LP,no,-0.10526315789473684,-0.5,-0.5,1
101,20,male,Mexican,exp,3,22,catch,yes,359,mixed,f,560,win,0,1188,0.7,0,0.4,30,LP-HP,f,791,LP,win,0,12,LP,yes,-2,-0.5,0.5,0
101,20,male,Mexican,exp,3,24,exp,yes,354,mixed,j,633,loss,0,457,0.7,10,0.3,30,HP-LP,f,1013,HP,win,7,9,LP,no,-0.25,0.5,0.5,1
101,20,male,Mexican,exp,3,26,exp,yes,533,mixed,j,578,win,0,583,0.6,30,0.4,50,HP-LP,j,1034,LP,no-win,18,20,LP,yes,-0.10526315789473684,-0.5,0.5,0
101,20,male,Mexican,exp,3,28,exp,no,338,mixed,j,823,loss,0,38,0.7,20,0.3,30,LP-HP,j,760,HP,win,14,9,HP,yes,0.43478260869565216,0.5,-0.5,1
101,20,male,Mexican,exp,3,30,exp,yes,386,mixed,f,517,loss,0,413,0.7,10,0.3,30,LP-HP,j,747,HP,win,7,9,LP,no,-0.25,0.5,0.5,1
101,20,male,Mexican,exp,3,32,exp,yes,376,mixed,f,434,loss,0,376,0.6,10,0.4,40,LP-HP,f,1173,LP,no-win,6,16,LP,yes,-0.9090909090909091,0.5,0.5,0
101,20,male,Mexican,exp,3,34,exp,no,442,mixed,j,1131,win,0,376,0.7,10,0.3,50,LP-HP,j,766,HP,no-win,7,15,LP,no,-0.7272727272727273,-0.5,-0.5,1
101,20,male,Mexican,exp,3,36,catch,no,443,mixed,j,690,win,0,400,0.6,0,0.2,40,HP-LP,f,769,HP,win,0,8,LP,no,-2,-0.5,-0.5,1
101,20,male,Mexican,exp,3,38,exp,yes,510,mixed,j,1140,loss,0,406,0.7,30,0.3,40,LP-HP,j,741,HP,no-win,21,12,HP,yes,0.5454545454545454,0.5,0.5,1
101,20,male,Mexican,exp,3,40,exp,no,300,mixed,j,813,loss,0,345,0.6,20,0.4,50,LP-HP,f,1044,LP,win,12,20,LP,yes,-0.5,0.5,-0.5,0
101,20,male,Mexican,exp,3,42,exp,no,429,mixed,f,1028,win,0,406,0.6,10,0.4,40,HP-LP,f,1012,HP,win,6,16,LP,no,-0.9090909090909091,-0.5,-0.5,1
101,20,male,Mexican,exp,3,44,exp,yes,405,mixed,f,1119,loss,0,633,0.8,10,0.2,20,LP-HP,j,797,HP,no-win,8,4,HP,yes,0.6666666666666666,0.5,0.5,1
101,20,male,Mexican,exp,3,46,exp,no,443,mixed,j,1028,loss,0,409,0.6,30,0.4,50,HP-LP,f,1130,HP,win,18,20,LP,no,-0.10526315789473684,0.5,-0.5,1
101,20,male,Mexican,exp,3,48,exp,no,317,mixed,f,1110,loss,0,493,0.7,10,0.3,50,LP-HP,j,634,HP,win,7,15,LP,no,-0.7272727272727273,0.5,-0.5,1
101,20,male,Mexican,exp,3,50,exp,yes,339,mixed,f,1165,win,0,433,0.6,10,0.4,40,HP-LP,j,1129,LP,no-win,6,16,LP,yes,-0.9090909090909091,-0.5,0.5,0
101,20,male,Mexican,exp,3,52,catch,no,314,mixed,f,1611,win,0,328,0.7,0,0.4,30,HP-LP,j,1178,LP,win,0,12,LP,yes,-2,-0.5,-0.5,0
101,20,male,Mexican,exp,4,2,exp,yes,963,mixed,f,1362,loss,0,1244,0.6,20,0.4,50,LP-HP,f,912,LP,win,12,20,LP,yes,-0.5,0.5,0.5,0
101,20,male,Mexican,exp,4,4,catch,no,328,mixed,j,658,loss,0,281,0.8,50,0.2,30,LP-HP,j,622,HP,win,40,6,HP,yes,1.4782608695652173,0.5,-0.5,1
101,20,male,Mexican,exp,4,6,exp,yes,357,mixed,f,762,win,0,454,0.7,10,0.3,50,HP-LP,f,885,HP,win,7,15,LP,no,-0.7272727272727273,-0.5,0.5,1
101,20,male,Mexican,exp,4,8,exp,no,393,mixed,j,602,win,0,326,0.7,30,0.3,40,HP-LP,f,1011,HP,win,21,12,HP,yes,0.5454545454545454,-0.5,-0.5,1
101,20,male,Mexican,exp,4,10,exp,no,292,mixed,f,989,loss,0,292,0.8,10,0.2,20,HP-LP,f,442,HP,win,8,4,HP,yes,0.6666666666666666,0.5,-0.5,1
101,20,male,Mexican,exp,4,12,catch,no,410,mixed,f,547,win,0,370,0.8,50,0.2,30,HP-LP,f,497,HP,win,40,6,HP,yes,1.4782608695652173,-0.5,-0.5,1
101,20,male,Mexican,exp,4,14,catch,yes,459,mixed,j,555,loss,0,369,0.7,30,0.3,10,LP-HP,f,363,LP,no-win,21,3,HP,no,1.5,0.5,0.5,0
101,20,male,Mexican,exp,4,16,exp,yes,449,mixed,j,516,win,0,446,0.6,20,0.4,50,LP-HP,f,1248,LP,no-win,12,20,LP,yes,-0.5,-0.5,0.5,0
101,20,male,Mexican,exp,4,18,catch,yes,350,mixed,j,745,loss,0,427,0.8,0,0.3,20,LP-HP,f,950,LP,win,0,6,LP,yes,-2,0.5,0.5,0
101,20,male,Mexican,exp,4,20,exp,yes,515,mixed,f,576,win,0,1480,0.7,10,0.3,30,LP-HP,j,1097,HP,win,7,9,LP,no,-0.25,-0.5,0.5,1
101,20,male,Mexican,exp,4,22,exp,no,425,mixed,f,525,win,0,377,0.8,10,0.2,20,HP-LP,f,564,HP,win,8,4,HP,yes,0.6666666666666666,-0.5,-0.5,1
101,20,male,Mexican,exp,4,24,exp,no,330,mixed,j,597,loss,0,348,0.6,40,0.4,50,LP-HP,j,883,HP,no-win,24,20,HP,yes,0.18181818181818182,0.5,-0.5,1
101,20,male,Mexican,exp,4,26,exp,yes,416,mixed,f,516,loss,0,945,0.7,20,0.3,30,HP-LP,f,782,HP,win,14,9,HP,yes,0.43478260869565216,0.5,0.5,1
101,20,male,Mexican,exp,4,28,exp,yes,351,mixed,j,649,loss,0,617,0.6,10,0.4,40,HP-LP,f,636,HP,win,6,16,LP,no,-0.9090909090909091,0.5,0.5,1
101,20,male,Mexican,exp,4,30,exp,no,395,mixed,f,398,win,0,275,0.6,30,0.4,50,HP-LP,f,794,HP,no-win,18,20,LP,no,-0.10526315789473684,-0.5,-0.5,1
101,20,male,Mexican,exp,4,32,exp,yes,376,mixed,j,497,win,0,413,0.6,40,0.4,50,LP-HP,j,631,HP,win,24,20,HP,yes,0.18181818181818182,-0.5,0.5,1
101,20,male,Mexican,exp,4,34,exp,yes,401,mixed,f,441,win,0,407,0.8,20,0.2,30,HP-LP,f,667,HP,no-win,16,6,HP,yes,0.9090909090909091,-0.5,0.5,1
101,20,male,Mexican,exp,4,36,exp,yes,440,mixed,j,625,loss,0,565,0.8,20,0.2,30,LP-HP,j,768,HP,no-win,16,6,HP,yes,0.9090909090909091,0.5,0.5,1
101,20,male,Mexican,exp,4,38,catch,yes,403,mixed,f,1267,win,0,433,0.8,0,0.3,20,HP-LP,j,3655,LP,no-win,0,6,LP,yes,-2,-0.5,0.5,0
101,20,male,Mexican,exp,4,40,exp,no,590,mixed,f,619,win,0,363,0.8,10,0.2,20,LP-HP,j,1297,HP,win,8,4,HP,yes,0.6666666666666666,-0.5,-0.5,1
101,20,male,Mexican,exp,4,42,exp,no,383,mixed,f,764,loss,0,328,0.7,30,0.3,40,LP-HP,j,655,HP,win,21,12,HP,yes,0.5454545454545454,0.5,-0.5,1
101,20,male,Mexican,exp,4,44,exp,yes,382,mixed,j,558,loss,0,1412,0.6,30,0.4,50,LP-HP,j,621,HP,no-win,18,20,LP,no,-0.10526315789473684,0.5,0.5,1
101,20,male,Mexican,exp,4,46,exp,yes,310,mixed,f,560,loss,0,617,0.7,10,0.3,50,LP-HP,j,474,HP,no-win,7,15,LP,no,-0.7272727272727273,0.5,0.5,1
101,20,male,Mexican,exp,4,48,catch,no,339,mixed,f,387,loss,0,389,0.6,0,0.2,40,LP-HP,f,742,LP,no-win,0,8,LP,yes,-2,0.5,-0.5,0
101,20,male,Mexican,exp,4,50,exp,no,571,mixed,f,722,win,0,414,0.8,20,0.2,30,HP-LP,f,608,HP,win,16,6,HP,yes,0.9090909090909091,-0.5,-0.5,1
101,20,male,Mexican,exp,4,52,exp,no,336,mixed,j,526,win,0,277,0.7,10,0.3,50,HP-LP,f,820,HP,no-win,7,15,LP,no,-0.7272727272727273,-0.5,-0.5,1
101,20,male,Mexican,exp,5,2,exp,no,794,mixed,f,717,loss,0,400,0.6,40,0.4,50,HP-LP,f,907,HP,win,24,20,HP,yes,0.18181818181818182,0.5,-0.5,1
101,20,male,Mexican,exp,5,4,exp,yes,729,mixed,j,482,loss,0,870,0.6,40,0.4,50,LP-HP,j,666,HP,win,24,20,HP,yes,0.18181818181818182,0.5,0.5,1
101,20,male,Mexican,exp,5,6,exp,yes,328,mixed,f,495,loss,1,809,0.6,20,0.4,50,HP-LP,j,863,LP,no-win,12,20,LP,yes,-0.5,0.5,0.5,0
101,20,male,Mexican,exp,5,8,exp,no,802,mixed,f,509,win,0,555,0.6,10,0.4,40,LP-HP,f,669,LP,no-win,6,16,LP,yes,-0.9090909090909091,-0.5,-0.5,0
101,20,male,Mexican,exp,5,10,exp,no,1134,mixed,j,440,loss,0,568,0.7,30,0.3,40,HP-LP,f,856,HP,win,21,12,HP,yes,0.5454545454545454,0.5,-0.5,1
101,20,male,Mexican,exp,5,12,catch,no,492,mixed,f,624,win,0,305,0.8,0,0.3,20,LP-HP,f,757,LP,win,0,6,LP,yes,-2,-0.5,-0.5,0
101,20,male,Mexican,exp,5,14,exp,no,316,mixed,j,585,win,0,359,0.7,10,0.3,30,LP-HP,f,720,LP,no-win,7,9,LP,yes,-0.25,-0.5,-0.5,0
101,20,male,Mexican,exp,5,16,catch,yes,373,mixed,j,615,loss,0,459,0.8,40,0.2,20,LP-HP,j,487,HP,no-win,32,4,HP,yes,1.5555555555555556,0.5,0.5,1
101,20,male,Mexican,exp,5,18,exp,yes,432,mixed,f,488,win,0,368,0.7,10,0.3,50,LP-HP,j,1429,HP,win,7,15,LP,no,-0.7272727272727273,-0.5,0.5,1
101,20,male,Mexican,exp,5,20,exp,yes,910,mixed,f,469,win,0,263,0.6,20,0.4,50,HP-LP,f,806,HP,win,12,20,LP,no,-0.5,-0.5,0.5,1
101,20,male,Mexican,exp,5,22,exp,yes,2079,mixed,j,463,win,1,398,0.7,20,0.3,30,LP-HP,f,333,LP,no-win,14,9,HP,no,0.43478260869565216,-0.5,0.5,0
101,20,male,Mexican,exp,5,24,catch,no,502,mixed,f,525,loss,0,1291,0.8,0,0.3,20,HP-LP,f,998,HP,win,0,6,LP,no,-2,0.5,-0.5,1
101,20,male,Mexican,exp,5,26,exp,no,619,mixed,j,507,loss,0,506,0.7,10,0.3,50,HP-LP,j,1372,LP,no-win,7,15,LP,yes,-0.7272727272727273,0.5,-0.5,0
101,20,male,Mexican,exp,5,28,catch,no,361,mixed,f,398,win,0,450,0.8,40,0.2,20,LP-HP,j,630,HP,win,32,4,HP,yes,1.5555555555555556,-0.5,-0.5,1
101,20,male,Mexican,exp,5,30,exp,yes,379,mixed,j,556,loss,0,1186,0.6,30,0.4,50,HP-LP,f,909,HP,win,18,20,LP,no,-0.10526315789473684,0.5,0.5,1
101,20,male,Mexican,exp,5,32,exp,no,456,mixed,f,463,win,0,970,0.7,20,0.3,30,LP-HP,j,370,HP,no-win,14,9,HP,yes,0.43478260869565216,-0.5,-0.5,1
101,20,male,Mexican,exp,5,34,exp,no,361,mixed,f,504,win,0,380,0.7,10,0.3,30,HP-LP,f,543,HP,win,7,9,LP,no,-0.25,-0.5,-0.5,1
101,20,male,Mexican,exp,5,36,catch,no,428,mixed,j,567,loss,0,291,0.7,30,0.3,10,HP-LP,f,518,HP,win,21,3,HP,yes,1.5,0.5,-0.5,1
101,20,male,Mexican,exp,5,38,exp,yes,1154,mixed,j,405,win,0,932,0.7,30,0.3,40,LP-HP,j,541,HP,no-win,21,12,HP,yes,0.5454545454545454,-0.5,0.5,1
101,20,male,Mexican,exp,5,40,catch,yes,1013,mixed,f,514,win,0,995,0.6,0,0.2,40,LP-HP,f,726,LP,no-win,0,8,LP,yes,-2,-0.5,0.5,0
101,20,male,Mexican,exp,5,42,exp,no,826,mixed,j,565,loss,0,320,0.6,10,0.4,40,HP-LP,j,948,LP,no-win,6,16,LP,yes,-0.9090909090909091,0.5,-0.5,0
101,20,male,Mexican,exp,5,44,exp,yes,435,mixed,f,358,loss,0,913,0.8,20,0.2,30,HP-LP,f,440,HP,win,16,6,HP,yes,0.9090909090909091,0.5,0.5,1
101,20,male,Mexican,exp,5,46,exp,yes,402,mixed,f,374,win,0,2094,0.6,10,0.4,40,LP-HP,j,684,HP,no-win,6,16,LP,no,-0.9090909090909091,-0.5,0.5,1
101,20,male,Mexican,exp,5,48,exp,yes,1523,mixed,f,346,win,0,1354,0.8,10,0.2,20,LP-HP,j,685,HP,win,8,4,HP,yes,0.6666666666666666,-0.5,0.5,1
101,20,male,Mexican,exp,5,50,exp,no,499,mixed,f,603,win,0,302,0.6,40,0.4,50,HP-LP,f,1087,HP,no-win,24,20,HP,yes,0.18181818181818182,-0.5,-0.5,1
101,20,male,Mexican,exp,5,52,exp,yes,348,mixed,f,450,loss,0,391,0.6,40,0.4,50,HP-LP,j,803,LP,no-win,24,20,HP,no,0.18181818181818182,0.5,0.5,0
101,20,male,Mexican,exp,6,2,exp,no,734,mixed,j,653,win,0,399,0.6,20,0.4,50,LP-HP,j,969,HP,win,12,20,LP,no,-0.5,-0.5,-0.5,1
101,20,male,Mexican,exp,6,4,exp,no,696,mixed,f,453,win,0,332,0.8,20,0.2,30,LP-HP,j,592,HP,win,16,6,HP,yes,0.9090909090909091,-0.5,-0.5,1
101,20,male,Mexican,exp,6,6,catch,yes,454,mixed,f,435,loss,0,502,0.8,50,0.2,30,HP-LP,f,524,HP,win,40,6,HP,yes,1.4782608695652173,0.5,0.5,1
101,20,male,Mexican,exp,6,8,exp,yes,448,mixed,f,492,win,0,804,0.7,10,0.3,30,HP-LP,j,377,LP,no-win,7,9,LP,yes,-0.25,-0.5,0.5,0
101,20,male,Mexican,exp,6,10,exp,no,676,mixed,j,618,win,0,375,0.7,30,0.3,40,LP-HP,j,707,HP,win,21,12,HP,yes,0.5454545454545454,-0.5,-0.5,1
101,20,male,Mexican,exp,6,12,catch,yes,381,mixed,f,390,win,0,5495,0.8,50,0.2,30,LP-HP,j,661,HP,win,40,6,HP,yes,1.4782608695652173,-0.5,0.5,1
101,20,male,Mexican,exp,6,14,exp,no,375,mixed,f,686,win,0,298,0.6,20,0.4,50,HP-LP,f,681,HP,win,12,20,LP,no,-0.5,-0.5,-0.5,1
101,20,male,Mexican,exp,6,16,catch,yes,314,mixed,f,404,win,0,527,0.7,30,0.3,10,HP-LP,f,516,HP,win,21,3,HP,yes,1.5,-0.5,0.5,1
101,20,male,Mexican,exp,6,18,exp,no,403,mixed,f,499,win,0,330,0.6,40,0.4,50,LP-HP,j,654,HP,win,24,20,HP,yes,0.18181818181818182,-0.5,-0.5,1
101,20,male,Mexican,exp,6,20,exp,no,396,mixed,f,440,loss,0,311,0.7,10,0.3,30,HP-LP,f,469,HP,win,7,9,LP,no,-0.25,0.5,-0.5,1
101,20,male,Mexican,exp,6,22,exp,yes,442,mixed,f,470,win,0,474,0.8,20,0.2,30,LP-HP,j,343,HP,no-win,16,6,HP,yes,0.9090909090909091,-0.5,0.5,1
101,20,male,Mexican,exp,6,24,catch,yes,446,mixed,f,433,win,0,610,0.8,40,0.2,20,HP-LP,f,458,HP,win,32,4,HP,yes,1.5555555555555556,-0.5,0.5,1
101,20,male,Mexican,exp,6,26,exp,yes,702,mixed,f,426,win,0,653,0.6,30,0.4,50,LP-HP,j,329,HP,win,18,20,LP,no,-0.10526315789473684,-0.5,0.5,1
101,20,male,Mexican,exp,6,28,exp,yes,780,mixed,f,417,loss,0,666,0.8,10,0.2,20,HP-LP,f,459,HP,no-win,8,4,HP,yes,0.6666666666666666,0.5,0.5,1
101,20,male,Mexican,exp,6,30,catch,yes,730,mixed,f,461,loss,1,1105,0.6,0,0.2,40,HP-LP,f,519,HP,no-win,0,8,LP,no,-2,0.5,0.5,1
101,20,male,Mexican,exp,6,32,exp,yes,704,mixed,j,543,win,0,1230,0.6,40,0.4,50,HP-LP,f,533,HP,no-win,24,20,HP,yes,0.18181818181818182,-0.5,0.5,1
101,20,male,Mexican,exp,6,34,exp,yes,1919,mixed,f,626,loss,0,765,0.7,30,0.3,40,HP-LP,f,579,HP,no-win,21,12,HP,yes,0.5454545454545454,0.5,0.5,1
101,20,male,Mexican,exp,6,36,catch,no,1894,mixed,j,377,loss,0,378,0.8,40,0.2,20,HP-LP,f,452,HP,win,32,4,HP,yes,1.5555555555555556,0.5,-0.5,1
101,20,male,Mexican,exp,6,38,exp,yes,332,mixed,f,345,win,0,921,0.8,10,0.2,20,HP-LP,f,470,HP,win,8,4,HP,yes,0.6666666666666666,-0.5,0.5,1
101,20,male,Mexican,exp,6,40,exp,no,338,mixed,j,479,win,0,674,0.7,20,0.3,30,HP-LP,f,323,HP,win,14,9,HP,yes,0.43478260869565216,-0.5,-0.5,1
101,20,male,Mexican,exp,6,42,exp,yes,367,mixed,f,381,loss,0,505,0.7,20,0.3,30,LP-HP,j,307,HP,no-win,14,9,HP,yes,0.43478260869565216,0.5,0.5,1
101,20,male,Mexican,exp,6,44,exp,no,319,mixed,f,510,loss,0,508,0.8,10,0.2,20,LP-HP,j,503,HP,win,8,4,HP,yes,0.6666666666666666,0.5,-0.5,1
101,20,male,Mexican,exp,6,46,exp,no,447,mixed,f,400,loss,0,306,0.6,10,0.4,40,LP-HP,j,594,HP,win,6,16,LP,no,-0.9090909090909091,0.5,-0.5,1
101,20,male,Mexican,exp,6,48,exp,no,437,mixed,j,528,loss,0,341,0.7,10,0.3,30,LP-HP,j,1134,HP,win,7,9,LP,no,-0.25,0.5,-0.5,1
101,20,male,Mexican,exp,6,50,exp,yes,320,mixed,j,394,loss,0,698,0.7,10,0.3,50,HP-LP,j,1180,LP,no-win,7,15,LP,yes,-0.7272727272727273,0.5,0.5,0
101,20,male,Mexican,exp,6,52,exp,no,324,mixed,f,397,loss,0,292,0.6,30,0.4,50,LP-HP,j,948,HP,no-win,18,20,LP,no,-0.10526315789473684,0.5,-0.5,1
102,27,male,USA,practice_game1,1,1,practice,na,1061,mixed,j,2984,win,0,0,0,0,0,0,na,na,0,na,na,0,0,LP,no,NA,-0.5,-0.5,0
102,27,male,USA,practice_game1,1,2,practice,na,1150,mixed,j,828,win,0,0,0,0,0,0,na,na,0,na,na,0,0,LP,no,NA,-0.5,-0.5,0
102,27,male,USA,practice_game1,1,3,practice,na,2046,mixed,f,2552,loss,0,0,0,0,0,0,na,na,0,na,na,0,0,LP,no,NA,0.5,-0.5,0
102,27,male,USA,practice_game1,1,4,practice,na,1171,mixed,f,1542,loss,0,0,0,0,0,0,na,na,0,na,na,0,0,LP,no,NA,0.5,-0.5,0
102,27,male,USA,practice_game2,2,1,practice,na,0,na,na,0,na,0,951,0.8,50,0.4,20,LP-HP,j,1818,HP,win,40,8,HP,yes,1.3333333333333333,-0.5,-0.5,1
102,27,male,USA,practice_game2,2,2,practice,na,0,na,na,0,na,0,816,0.7,10,0.3,50,HP-LP,f,990,HP,win,7,15,LP,no,-0.7272727272727273,-0.5,-0.5,1
102,27,male,USA,practice_game2,2,3,practice,na,0,na,na,0,na,0,449,0.6,10,0.4,40,HP-LP,f,946,HP,no-win,6,16,LP,no,-0.9090909090909091,-0.5,-0.5,1
102,27,male,USA,practice_game2,2,4,practice,na,0,na,na,0,na,0,681,0.8,10,0.2,20,LP-HP,j,771,HP,win,8,4,HP,yes,0.6666666666666666,-0.5,-0.5,1
102,27,male,USA,practice_game2,2,5,practice,na,0,na,na,0,na,0,365,0.8,20,0.2,30,HP-LP,f,941,HP,no-win,16,6,HP,yes,0.9090909090909091,-0.5,-0.5,1
102,27,male,USA,exp,3,2,exp,yes,2839,mixed,f,802,loss,1,512,0.8,20,0.2,30,HP-LP,j,448,LP,no-win,16,6,HP,no,0.9090909090909091,0.5,0.5,0
102,27,male,USA,exp,3,4,catch,yes,707,mixed,j,1204,win,0,479,0.6,0,0.2,40,LP-HP,j,817,HP,no-win,0,8,LP,no,-2,-0.5,0.5,1
102,27,male,USA,exp,3,6,catch,no,1677,mixed,j,889,loss,0,465,0.6,0,0.2,40,LP-HP,j,767,HP,win,0,8,LP,no,-2,0.5,-0.5,1
102,27,male,USA,exp,3,8,exp,yes,871,mixed,f,1102,win,1,517,0.6,40,0.4,50,LP-HP,j,1131,HP,no-win,24,20,HP,yes,0.18181818181818182,-0.5,0.5,1
102,27,male,USA,exp,3,10,catch,no,1368,mixed,j,1338,loss,0,227,0.8,0,0.3,20,HP-LP,f,616,HP,win,0,6,LP,no,-2,0.5,-0.5,1
102,27,male,USA,exp,3,12,exp,no,598,mixed,f,1297,loss,0,455,0.7,30,0.3,40,LP-HP,j,647,HP,no-win,21,12,HP,yes,0.5454545454545454,0.5,-0.5,1
102,27,male,USA,exp,3,14,exp,no,542,mixed,j,698,win,0,455,0.7,30,0.3,40,LP-HP,j,609,HP,win,21,12,HP,yes,0.5454545454545454,-0.5,-0.5,1
102,27,male,USA,exp,3,16,exp,no,2433,mixed,f,664,loss,0,439,0.6,20,0.4,50,LP-HP,j,512,HP,win,12,20,LP,no,-0.5,0.5,-0.5,1
102,27,male,USA,exp,3,18,exp,yes,910,mixed,f,622,loss,1,349,0.7,30,0.3,40,HP-LP,f,714,HP,no-win,21,12,HP,yes,0.5454545454545454,0.5,0.5,1
102,27,male,USA,exp,3,20,exp,no,716,mixed,j,870,win,0,872,0.8,20,0.2,30,HP-LP,f,606,HP,no-win,16,6,HP,yes,0.9090909090909091,-0.5,-0.5,1
102,27,male,USA,exp,3,22,exp,yes,1129,mixed,f,873,loss,0,393,0.7,10,0.3,50,LP-HP,j,635,HP,win,7,15,LP,no,-0.7272727272727273,0.5,0.5,1
102,27,male,USA,exp,3,24,exp,yes,461,mixed,f,781,win,1,423,0.7,10,0.3,50,HP-LP,f,807,HP,win,7,15,LP,no,-0.7272727272727273,-0.5,0.5,1
102,27,male,USA,exp,3,26,exp,yes,732,mixed,j,723,win,0,576,0.7,10,0.3,30,HP-LP,f,975,HP,win,7,9,LP,no,-0.25,-0.5,0.5,1
102,27,male,USA,exp,3,28,exp,no,982,mixed,f,1442,loss,0,544,0.8,10,0.2,20,HP-LP,f,640,HP,win,8,4,HP,yes,0.6666666666666666,0.5,-0.5,1
102,27,male,USA,exp,3,30,exp,yes,674,mixed,j,575,loss,3,24,0.8,20,0.2,30,LP-HP,j,665,HP,win,16,6,HP,yes,0.9090909090909091,0.5,0.5,1
102,27,male,USA,exp,3,32,exp,yes,598,mixed,j,942,win,2,416,0.6,20,0.4,50,LP-HP,j,846,HP,win,12,20,LP,no,-0.5,-0.5,0.5,1
102,27,male,USA,exp,3,34,catch,no,978,mixed,j,882,loss,0,924,0.7,0,0.4,30,LP-HP,j,792,HP,win,0,12,LP,no,-2,0.5,-0.5,1
102,27,male,USA,exp,3,36,exp,no,1058,mixed,j,911,loss,0,830,0.7,10,0.3,30,HP-LP,f,1021,HP,no-win,7,9,LP,no,-0.25,0.5,-0.5,1
102,27,male,USA,exp,3,38,exp,yes,1147,mixed,f,824,win,0,481,0.7,10,0.3,50,LP-HP,j,593,HP,no-win,7,15,LP,no,-0.7272727272727273,-0.5,0.5,1
102,27,male,USA,exp,3,40,exp,yes,1273,mixed,j,893,win,0,1185,0.6,30,0.4,50,HP-LP,j,1806,LP,no-win,18,20,LP,yes,-0.10526315789473684,-0.5,0.5,0
102,27,male,USA,exp,3,42,catch,no,38331,mixed,j,939,win,0,767,0.7,0,0.4,30,HP-LP,f,482,HP,no-win,0,12,LP,no,-2,-0.5,-0.5,1
102,27,male,USA,exp,3,44,catch,no,516,mixed,j,575,win,0,785,0.7,30,0.3,10,HP-LP,f,484,HP,win,21,3,HP,yes,1.5,-0.5,-0.5,1
102,27,male,USA,exp,3,46,exp,no,564,mixed,f,601,win,0,119,0.6,10,0.4,40,HP-LP,j,475,LP,no-win,6,16,LP,yes,-0.9090909090909091,-0.5,-0.5,0
102,27,male,USA,exp,3,48,exp,yes,1076,mixed,f,481,loss,1,352,0.6,10,0.4,40,HP-LP,f,807,HP,win,6,16,LP,no,-0.9090909090909091,0.5,0.5,1
102,27,male,USA,exp,3,50,exp,yes,518,mixed,j,837,win,0,465,0.7,10,0.3,30,LP-HP,j,655,HP,no-win,7,9,LP,no,-0.25,-0.5,0.5,1
102,27,male,USA,exp,3,52,exp,yes,834,mixed,j,588,win,1,550,0.7,30,0.3,40,HP-LP,f,789,HP,no-win,21,12,HP,yes,0.5454545454545454,-0.5,0.5,1
102,27,male,USA,exp,4,2,catch,no,1875,mixed,j,781,win,0,845,0.8,0,0.3,20,LP-HP,j,667,HP,win,0,6,LP,no,-2,-0.5,-0.5,1
102,27,male,USA,exp,4,4,exp,yes,1615,mixed,f,814,win,0,569,0.8,20,0.2,30,HP-LP,f,919,HP,win,16,6,HP,yes,0.9090909090909091,-0.5,0.5,1
102,27,male,USA,exp,4,6,exp,no,2090,mixed,j,715,win,0,2768,0.6,30,0.4,50,HP-LP,f,490,HP,win,18,20,LP,no,-0.10526315789473684,-0.5,-0.5,1
102,27,male,USA,exp,4,8,exp,yes,1161,mixed,f,759,win,0,539,0.8,20,0.2,30,LP-HP,j,957,HP,win,16,6,HP,yes,0.9090909090909091,-0.5,0.5,1
102,27,male,USA,exp,4,10,exp,yes,1218,mixed,f,1008,loss,0,1435,0.6,40,0.4,50,HP-LP,f,882,HP,win,24,20,HP,yes,0.18181818181818182,0.5,0.5,1
102,27,male,USA,exp,4,12,exp,yes,1231,mixed,j,873,win,1,1171,0.8,10,0.2,20,LP-HP,j,574,HP,win,8,4,HP,yes,0.6666666666666666,-0.5,0.5,1
102,27,male,USA,exp,4,14,exp,yes,612,mixed,j,1626,loss,0,567,0.7,20,0.3,30,HP-LP,f,813,HP,win,14,9,HP,yes,0.43478260869565216,0.5,0.5,1
102,27,male,USA,exp,4,16,exp,no,973,mixed,f,636,win,0,179,0.7,10,0.3,30,LP-HP,j,929,HP,win,7,9,LP,no,-0.25,-0.5,-0.5,1
102,27,male,USA,exp,4,18,exp,no,761,mixed,j,865,loss,0,1588,0.8,20,0.2,30,LP-HP,j,633,HP,win,16,6,HP,yes,0.9090909090909091,0.5,-0.5,1
102,27,male,USA,exp,4,20,catch,yes,670,mixed,j,699,loss,0,1017,0.8,50,0.2,30,LP-HP,j,613,HP,win,40,6,HP,yes,1.4782608695652173,0.5,0.5,1
102,27,male,USA,exp,4,22,exp,no,1009,mixed,f,1027,win,0,947,0.8,10,0.2,20,LP-HP,j,588,HP,win,8,4,HP,yes,0.6666666666666666,-0.5,-0.5,1
102,27,male,USA,exp,4,24,catch,no,3491,mixed,j,787,win,0,808,0.8,50,0.2,30,LP-HP,j,579,HP,win,40,6,HP,yes,1.4782608695652173,-0.5,-0.5,1
102,27,male,USA,exp,4,26,exp,no,1005,mixed,j,736,loss,0,1281,0.7,10,0.3,50,LP-HP,j,715,HP,win,7,15,LP,no,-0.7272727272727273,0.5,-0.5,1
102,27,male,USA,exp,4,28,exp,yes,939,mixed,f,1388,loss,0,577,0.8,10,0.2,20,LP-HP,j,633,HP,win,8,4,HP,yes,0.6666666666666666,0.5,0.5,1
102,27,male,USA,exp,4,30,catch,yes,123996,mixed,j,810,loss,1,476,0.7,0,0.4,30,HP-LP,f,683,HP,no-win,0,12,LP,no,-2,0.5,0.5,1
102,27,male,USA,exp,4,32,exp,yes,492,mixed,j,763,loss,3,272,0.7,10,0.3,30,HP-LP,f,629,HP,no-win,7,9,LP,no,-0.25,0.5,0.5,1
102,27,male,USA,exp,4,34,exp,no,2326,mixed,f,728,loss,0,1949,0.6,40,0.4,50,LP-HP,j,294,HP,win,24,20,HP,yes,0.18181818181818182,0.5,-0.5,1
102,27,male,USA,exp,4,36,exp,yes,605,mixed,j,712,win,2,704,0.7,20,0.3,30,LP-HP,j,762,HP,no-win,14,9,HP,yes,0.43478260869565216,-0.5,0.5,1
102,27,male,USA,exp,4,38,exp,yes,995,mixed,j,919,loss,1,418,0.6,20,0.4,50,HP-LP,f,537,HP,win,12,20,LP,no,-0.5,0.5,0.5,1
102,27,male,USA,exp,4,40,exp,no,623,mixed,f,656,loss,0,582,0.6,10,0.4,40,LP-HP,j,1368,HP,no-win,6,16,LP,no,-0.9090909090909091,0.5,-0.5,1
102,27,male,USA,exp,4,42,catch,yes,423,mixed,f,637,loss,0,465,0.7,30,0.3,10,HP-LP,f,774,HP,win,21,3,HP,yes,1.5,0.5,0.5,1
102,27,male,USA,exp,4,44,exp,no,969,mixed,j,746,loss,0,474,0.8,10,0.2,20,LP-HP,j,275,HP,win,8,4,HP,yes,0.6666666666666666,0.5,-0.5,1
102,27,male,USA,exp,4,46,exp,no,1182,mixed,f,1686,win,0,669,0.7,10,0.3,50,HP-LP,f,648,HP,win,7,15,LP,no,-0.7272727272727273,-0.5,-0.5,1
102,27,male,USA,exp,4,48,exp,yes,900,mixed,f,260,win,5,432,0.7,30,0.3,40,LP-HP,j,290,HP,win,21,12,HP,yes,0.5454545454545454,-0.5,0.5,1
102,27,male,USA,exp,4,50,catch,yes,539,mixed,j,727,loss,1,472,0.8,40,0.2,20,LP-HP,j,732,HP,win,32,4,HP,yes,1.5555555555555556,0.5,0.5,1
102,27,male,USA,exp,4,52,exp,no,1015,mixed,j,1254,win,0,1118,0.6,20,0.4,50,HP-LP,f,689,HP,no-win,12,20,LP,no,-0.5,-0.5,-0.5,1
102,27,male,USA,exp,5,2,exp,no,894,mixed,j,670,loss,0,1066,0.6,30,0.4,50,HP-LP,f,6008,HP,win,18,20,LP,no,-0.10526315789473684,0.5,-0.5,1
102,27,male,USA,exp,5,4,exp,no,849,mixed,j,729,win,0,403,0.6,10,0.4,40,LP-HP,j,1286,HP,no-win,6,16,LP,no,-0.9090909090909091,-0.5,-0.5,1
102,27,male,USA,exp,5,6,catch,no,871,mixed,j,642,loss,0,515,0.8,40,0.2,20,HP-LP,f,462,HP,win,32,4,HP,yes,1.5555555555555556,0.5,-0.5,1
102,27,male,USA,exp,5,8,exp,no,893,mixed,f,581,win,0,625,0.7,10,0.3,30,HP-LP,f,571,HP,win,7,9,LP,no,-0.25,-0.5,-0.5,1
102,27,male,USA,exp,5,10,catch,no,569,mixed,j,569,win,0,797,0.8,40,0.2,20,LP-HP,j,1309,HP,no-win,32,4,HP,yes,1.5555555555555556,-0.5,-0.5,1
102,27,male,USA,exp,5,12,catch,yes,472,mixed,j,877,loss,2,590,0.8,0,0.3,20,LP-HP,j,1463,HP,win,0,6,LP,no,-2,0.5,0.5,1
102,27,male,USA,exp,5,14,exp,no,1854,mixed,f,762,win,0,522,0.6,30,0.4,50,LP-HP,j,1006,HP,win,18,20,LP,no,-0.10526315789473684,-0.5,-0.5,1
102,27,male,USA,exp,5,16,exp,no,601,mixed,f,604,loss,0,576,0.7,20,0.3,30,HP-LP,j,455,LP,no-win,14,9,HP,no,0.43478260869565216,0.5,-0.5,0
102,27,male,USA,exp,5,18,exp,no,1497,mixed,f,614,loss,0,499,0.7,10,0.3,30,LP-HP,j,441,HP,win,7,9,LP,no,-0.25,0.5,-0.5,1
102,27,male,USA,exp,5,20,exp,yes,614,mixed,j,729,loss,0,432,0.7,30,0.3,40,LP-HP,j,672,HP,win,21,12,HP,yes,0.5454545454545454,0.5,0.5,1
102,27,male,USA,exp,5,22,exp,no,2882,mixed,f,739,win,0,800,0.8,10,0.2,20,HP-LP,f,624,HP,win,8,4,HP,yes,0.6666666666666666,-0.5,-0.5,1
102,27,male,USA,exp,5,24,exp,no,592,mixed,j,480,loss,0,880,0.8,20,0.2,30,HP-LP,f,556,HP,no-win,16,6,HP,yes,0.9090909090909091,0.5,-0.5,1
102,27,male,USA,exp,5,26,exp,no,1232,mixed,j,991,loss,0,387,0.7,20,0.3,30,LP-HP,j,582,HP,win,14,9,HP,yes,0.43478260869565216,0.5,-0.5,1
102,27,male,USA,exp,5,28,exp,yes,636,mixed,f,776,win,1,457,0.8,10,0.2,20,HP-LP,f,570,HP,win,8,4,HP,yes,0.6666666666666666,-0.5,0.5,1
102,27,male,USA,exp,5,30,exp,yes,517,mixed,j,698,loss,0,688,0.6,10,0.4,40,LP-HP,j,1451,HP,win,6,16,LP,no,-0.9090909090909091,0.5,0.5,1
102,27,male,USA,exp,5,32,exp,yes,923,mixed,f,591,loss,0,539,0.6,30,0.4,50,HP-LP,f,592,HP,no-win,18,20,LP,no,-0.10526315789473684,0.5,0.5,1
102,27,male,USA,exp,5,34,exp,yes,858,mixed,j,964,win,0,514,0.6,40,0.4,50,HP-LP,f,521,HP,win,24,20,HP,yes,0.18181818181818182,-0.5,0.5,1
102,27,male,USA,exp,5,36,exp,no,708,mixed,f,638,loss,0,458,0.7,10,0.3,50,HP-LP,j,444,LP,no-win,7,15,LP,yes,-0.7272727272727273,0.5,-0.5,0
102,27,male,USA,exp,5,38,exp,yes,535,mixed,f,990,loss,0,1015,0.7,10,0.3,30,LP-HP,j,698,HP,no-win,7,9,LP,no,-0.25,0.5,0.5,1
102,27,male,USA,exp,5,40,catch,yes,708,mixed,j,683,win,1,819,0.8,50,0.2,30,HP-LP,f,553,HP,win,40,6,HP,yes,1.4782608695652173,-0.5,0.5,1
102,27,male,USA,exp,5,42,exp,yes,745,mixed,j,764,loss,3,495,0.7,10,0.3,50,HP-LP,j,1745,LP,win,7,15,LP,yes,-0.7272727272727273,0.5,0.5,0
102,27,male,USA,exp,5,44,catch,yes,870,mixed,f,631,win,0,726,0.7,0,0.4,30,LP-HP,j,648,HP,win,0,12,LP,no,-2,-0.5,0.5,1
102,27,male,USA,exp,5,46,exp,no,1764,mixed,f,1348,loss,0,3061,0.6,20,0.4,50,HP-LP,f,1839,HP,no-win,12,20,LP,no,-0.5,0.5,-0.5,1
102,27,male,USA,exp,5,48,catch,no,1589,mixed,j,1360,win,0,1328,0.6,0,0.2,40,HP-LP,f,2530,HP,no-win,0,8,LP,no,-2,-0.5,-0.5,1
102,27,male,USA,exp,5,50,exp,no,656,mixed,j,1321,win,0,712,0.7,20,0.3,30,LP-HP,j,547,HP,win,14,9,HP,yes,0.43478260869565216,-0.5,-0.5,1
102,27,male,USA,exp,5,52,exp,no,505,mixed,j,662,win,0,417,0.8,20,0.2,30,LP-HP,j,707,HP,win,16,6,HP,yes,0.9090909090909091,-0.5,-0.5,1
102,27,male,USA,exp,6,2,catch,yes,2098,mixed,f,1071,win,0,829,0.8,40,0.2,20,HP-LP,f,2400,HP,win,32,4,HP,yes,1.5555555555555556,-0.5,0.5,1
102,27,male,USA,exp,6,4,exp,no,531,mixed,f,1029,win,0,744,0.7,20,0.3,30,HP-LP,f,1067,HP,no-win,14,9,HP,yes,0.43478260869565216,-0.5,-0.5,1
102,27,male,USA,exp,6,6,exp,no,602,mixed,j,747,loss,0,667,0.6,40,0.4,50,HP-LP,f,754,HP,no-win,24,20,HP,yes,0.18181818181818182,0.5,-0.5,1
102,27,male,USA,exp,6,8,exp,no,603,mixed,j,684,win,0,451,0.6,40,0.4,50,LP-HP,j,1105,HP,win,24,20,HP,yes,0.18181818181818182,-0.5,-0.5,1
102,27,male,USA,exp,6,10,catch,no,990,mixed,f,741,loss,0,1104,0.8,50,0.2,30,HP-LP,f,688,HP,no-win,40,6,HP,yes,1.4782608695652173,0.5,-0.5,1
102,27,male,USA,exp,6,12,exp,yes,9904,mixed,j,723,win,1,543,0.6,20,0.4,50,HP-LP,f,848,HP,win,12,20,LP,no,-0.5,-0.5,0.5,1
102,27,male,USA,exp,6,14,catch,yes,697,mixed,j,577,win,1,899,0.8,0,0.3,20,HP-LP,f,593,HP,no-win,0,6,LP,no,-2,-0.5,0.5,1
102,27,male,USA,exp,6,16,exp,yes,1005,mixed,j,581,win,1,426,0.6,10,0.4,40,HP-LP,f,749,HP,no-win,6,16,LP,no,-0.9090909090909091,-0.5,0.5,1
102,27,male,USA,exp,6,18,exp,yes,3153,mixed,j,696,loss,0,544,0.6,20,0.4,50,LP-HP,j,772,HP,win,12,20,LP,no,-0.5,0.5,0.5,1
102,27,male,USA,exp,6,20,exp,yes,620,mixed,f,918,loss,1,3674,0.6,30,0.4,50,LP-HP,j,1929,HP,win,18,20,LP,no,-0.10526315789473684,0.5,0.5,1
102,27,male,USA,exp,6,22,exp,yes,724,mixed,f,685,loss,0,682,0.8,10,0.2,20,HP-LP,j,366,LP,no-win,8,4,HP,no,0.6666666666666666,0.5,0.5,0
102,27,male,USA,exp,6,24,exp,no,659,mixed,j,734,win,0,326,0.6,20,0.4,50,LP-HP,j,550,HP,no-win,12,20,LP,no,-0.5,-0.5,-0.5,1
102,27,male,USA,exp,6,26,exp,no,554,mixed,j,631,loss,1,443,0.6,30,0.4,50,LP-HP,j,965,HP,win,18,20,LP,no,-0.10526315789473684,0.5,-0.5,1
102,27,male,USA,exp,6,28,exp,yes,635,mixed,f,463,loss,2,344,0.7,20,0.3,30,LP-HP,j,670,HP,win,14,9,HP,yes,0.43478260869565216,0.5,0.5,1
102,27,male,USA,exp,6,30,exp,yes,497,mixed,f,778,win,0,582,0.6,10,0.4,40,LP-HP,j,891,HP,win,6,16,LP,no,-0.9090909090909091,-0.5,0.5,1
102,27,male,USA,exp,6,32,exp,no,677,mixed,j,603,loss,0,498,0.7,30,0.3,40,HP-LP,f,559,HP,win,21,12,HP,yes,0.5454545454545454,0.5,-0.5,1
102,27,male,USA,exp,6,34,exp,no,672,mixed,j,690,win,0,217,0.7,10,0.3,50,LP-HP,j,643,HP,win,7,15,LP,no,-0.7272727272727273,-0.5,-0.5,1
102,27,male,USA,exp,6,36,exp,yes,452,mixed,f,770,win,0,652,0.6,30,0.4,50,LP-HP,j,631,HP,no-win,18,20,LP,no,-0.10526315789473684,-0.5,0.5,1
102,27,male,USA,exp,6,38,catch,no,543,mixed,j,925,loss,0,1787,0.7,30,0.3,10,LP-HP,j,566,HP,no-win,21,3,HP,yes,1.5,0.5,-0.5,1
102,27,male,USA,exp,6,40,exp,no,719,mixed,f,857,win,0,2235,0.7,30,0.3,40,HP-LP,f,598,HP,win,21,12,HP,yes,0.5454545454545454,-0.5,-0.5,1
102,27,male,USA,exp,6,42,exp,no,654,mixed,j,669,win,0,310,0.6,40,0.4,50,HP-LP,f,861,HP,win,24,20,HP,yes,0.18181818181818182,-0.5,-0.5,1
102,27,male,USA,exp,6,44,exp,yes,642,mixed,f,611,win,0,579,0.7,20,0.3,30,HP-LP,f,629,HP,win,14,9,HP,yes,0.43478260869565216,-0.5,0.5,1
102,27,male,USA,exp,6,46,catch,yes,545,mixed,j,639,win,1,439,0.7,30,0.3,10,LP-HP,j,551,HP,win,21,3,HP,yes,1.5,-0.5,0.5,1
102,27,male,USA,exp,6,48,exp,no,986,mixed,j,822,loss,1,399,0.6,10,0.4,40,HP-LP,f,637,HP,no-win,6,16,LP,no,-0.9090909090909091,0.5,-0.5,1
102,27,male,USA,exp,6,50,exp,yes,147,mixed,j,724,loss,3,833,0.6,40,0.4,50,LP-HP,j,681,HP,no-win,24,20,HP,yes,0.18181818181818182,0.5,0.5,1
102,27,male,USA,exp,6,52,catch,yes,1229,mixed,f,898,loss,2,387,0.6,0,0.2,40,HP-LP,f,696,HP,win,0,8,LP,no,-2,0.5,0.5,1
103,29,male,South African,practice_game1,1,1,practice,na,2086,mixed,j,3926,loss,0,0,0,0,0,0,na,na,0,na,na,0,0,LP,no,NA,0.5,-0.5,0
103,29,male,South African,practice_game1,1,2,practice,na,2267,mixed,j,1142,win,0,0,0,0,0,0,na,na,0,na,na,0,0,LP,no,NA,-0.5,-0.5,0
103,29,male,South African,practice_game1,1,3,practice,na,1128,mixed,j,1199,win,0,0,0,0,0,0,na,na,0,na,na,0,0,LP,no,NA,-0.5,-0.5,0
103,29,male,South African,practice_game1,1,4,practice,na,1062,mixed,j,1204,loss,0,0,0,0,0,0,na,na,0,na,na,0,0,LP,no,NA,0.5,-0.5,0
103,29,male,South African,practice_game2,2,1,practice,na,0,na,na,0,na,0,1685,0.8,50,0.4,20,LP-HP,j,2294,HP,no-win,40,8,HP,yes,1.3333333333333333,-0.5,-0.5,1
103,29,male,South African,practice_game2,2,2,practice,na,0,na,na,0,na,0,638,0.8,10,0.2,20,HP-LP,f,1850,HP,win,8,4,HP,yes,0.6666666666666666,-0.5,-0.5,1
103,29,male,South African,practice_game2,2,3,practice,na,0,na,na,0,na,0,825,0.7,10,0.3,50,HP-LP,f,1588,HP,no-win,7,15,LP,no,-0.7272727272727273,-0.5,-0.5,1
103,29,male,South African,practice_game2,2,4,practice,na,0,na,na,0,na,0,864,0.8,20,0.2,30,LP-HP,j,1279,HP,win,16,6,HP,yes,0.9090909090909091,-0.5,-0.5,1
103,29,male,South African,practice_game2,2,5,practice,na,0,na,na,0,na,0,915,0.6,10,0.4,40,HP-LP,j,3692,LP,no-win,6,16,LP,yes,-0.9090909090909091,-0.5,-0.5,0
103,29,male,South African,exp,3,2,catch,no,2219,mixed,f,2518,win,0,1164,0.8,40,0.2,20,LP-HP,j,1258,HP,no-win,32,4,HP,yes,1.5555555555555556,-0.5,-0.5,1
103,29,male,South African,exp,3,4,exp,no,936,mixed,f,1931,win,0,973,0.6,10,0.4,40,HP-LP,j,2731,LP,no-win,6,16,LP,yes,-0.9090909090909091,-0.5,-0.5,0
103,29,male,South African,exp,3,6,exp,yes,752,mixed,f,1737,loss,0,769,0.7,10,0.3,50,HP-LP,f,3291,HP,no-win,7,15,LP,no,-0.7272727272727273,0.5,0.5,1
103,29,male,South African,exp,3,8,exp,no,491,mixed,j,1314,win,0,538,0.7,10,0.3,50,HP-LP,f,1167,HP,win,7,15,LP,no,-0.7272727272727273,-0.5,-0.5,1
103,29,male,South African,exp,3,10,exp,yes,924,mixed,f,1735,loss,0,763,0.8,20,0.2,30,HP-LP,f,1951,HP,win,16,6,HP,yes,0.9090909090909091,0.5,0.5,1
103,29,male,South African,exp,3,12,exp,no,719,mixed,j,971,win,0,676,0.6,20,0.4,50,LP-HP,j,1771,HP,win,12,20,LP,no,-0.5,-0.5,-0.5,1
103,29,male,South African,exp,3,14,exp,no,692,mixed,j,2120,win,0,472,0.8,10,0.2,20,HP-LP,f,1307,HP,win,8,4,HP,yes,0.6666666666666666,-0.5,-0.5,1
103,29,male,South African,exp,3,16,exp,yes,715,mixed,j,843,loss,0,565,0.6,40,0.4,50,LP-HP,j,1319,HP,no-win,24,20,HP,yes,0.18181818181818182,0.5,0.5,1
103,29,male,South African,exp,3,18,exp,yes,613,mixed,f,1087,win,0,506,0.6,30,0.4,50,LP-HP,j,1044,HP,win,18,20,LP,no,-0.10526315789473684,-0.5,0.5,1
103,29,male,South African,exp,3,20,exp,yes,507,mixed,j,1044,loss,0,453,0.6,40,0.4,50,HP-LP,f,2328,HP,win,24,20,HP,yes,0.18181818181818182,0.5,0.5,1
103,29,male,South African,exp,3,22,exp,yes,721,mixed,j,674,loss,0,511,0.6,30,0.4,50,LP-HP,j,1102,HP,no-win,18,20,LP,no,-0.10526315789473684,0.5,0.5,1
103,29,male,South African,exp,3,24,catch,no,410,mixed,j,815,win,0,463,0.7,0,0.4,30,LP-HP,f,2381,LP,win,0,12,LP,yes,-2,-0.5,-0.5,0
103,29,male,South African,exp,3,26,exp,no,451,mixed,j,1063,loss,0,330,0.7,10,0.3,30,LP-HP,f,2915,LP,win,7,9,LP,yes,-0.25,0.5,-0.5,0
103,29,male,South African,exp,3,28,exp,no,564,mixed,f,1095,loss,0,322,0.7,10,0.3,30,HP-LP,j,2036,LP,no-win,7,9,LP,yes,-0.25,0.5,-0.5,0
103,29,male,South African,exp,3,30,exp,yes,301,mixed,f,663,win,0,614,0.7,20,0.3,30,LP-HP,j,1146,HP,win,14,9,HP,yes,0.43478260869565216,-0.5,0.5,1
103,29,male,South African,exp,3,32,catch,no,644,mixed,f,1026,win,0,456,0.8,50,0.2,30,HP-LP,f,1219,HP,win,40,6,HP,yes,1.4782608695652173,-0.5,-0.5,1
103,29,male,South African,exp,3,34,exp,no,587,mixed,j,1372,loss,0,410,0.6,40,0.4,50,LP-HP,j,1203,HP,no-win,24,20,HP,yes,0.18181818181818182,0.5,-0.5,1
103,29,male,South African,exp,3,36,exp,no,459,mixed,f,932,loss,0,391,0.6,30,0.4,50,LP-HP,j,1098,HP,win,18,20,LP,no,-0.10526315789473684,0.5,-0.5,1
103,29,male,South African,exp,3,38,exp,yes,384,mixed,f,1061,win,0,384,0.8,10,0.2,20,HP-LP,f,1395,HP,win,8,4,HP,yes,0.6666666666666666,-0.5,0.5,1
103,29,male,South African,exp,3,40,exp,no,432,mixed,j,726,win,0,278,0.6,40,0.4,50,LP-HP,j,1425,HP,no-win,24,20,HP,yes,0.18181818181818182,-0.5,-0.5,1
103,29,male,South African,exp,3,42,catch,no,269,mixed,f,1008,win,0,437,0.6,0,0.2,40,LP-HP,f,1305,LP,no-win,0,8,LP,yes,-2,-0.5,-0.5,0
103,29,male,South African,exp,3,44,exp,yes,794,mixed,f,1134,loss,0,440,0.6,20,0.4,50,LP-HP,j,1651,HP,no-win,12,20,LP,no,-0.5,0.5,0.5,1
103,29,male,South African,exp,3,46,exp,yes,502,mixed,f,556,loss,0,664,0.7,10,0.3,50,LP-HP,j,2583,HP,win,7,15,LP,no,-0.7272727272727273,0.5,0.5,1
103,29,male,South African,exp,3,48,catch,no,419,mixed,j,862,win,0,292,0.8,0,0.3,20,HP-LP,j,1417,LP,no-win,0,6,LP,yes,-2,-0.5,-0.5,0
103,29,male,South African,exp,3,50,exp,no,436,mixed,f,1232,loss,0,880,0.7,20,0.3,30,HP-LP,f,1800,HP,no-win,14,9,HP,yes,0.43478260869565216,0.5,-0.5,1
103,29,male,South African,exp,3,52,catch,yes,474,mixed,f,1093,win,0,1190,0.6,0,0.2,40,HP-LP,j,1740,LP,win,0,8,LP,yes,-2,-0.5,0.5,0
103,29,male,South African,exp,4,2,exp,yes,1661,mixed,f,1505,win,0,544,0.6,30,0.4,50,HP-LP,f,2329,HP,no-win,18,20,LP,no,-0.10526315789473684,-0.5,0.5,1
103,29,male,South African,exp,4,4,exp,no,1098,mixed,f,732,win,0,681,0.7,30,0.3,40,HP-LP,f,1055,HP,win,21,12,HP,yes,0.5454545454545454,-0.5,-0.5,1
103,29,male,South African,exp,4,6,exp,no,1150,mixed,j,1058,win,0,298,0.7,10,0.3,50,LP-HP,j,1152,HP,win,7,15,LP,no,-0.7272727272727273,-0.5,-0.5,1
103,29,male,South African,exp,4,8,exp,yes,607,mixed,f,1740,win,0,350,0.8,20,0.2,30,HP-LP,f,1505,HP,no-win,16,6,HP,yes,0.9090909090909091,-0.5,0.5,1
103,29,male,South African,exp,4,10,catch,yes,430,mixed,f,576,loss,0,419,0.8,40,0.2,20,LP-HP,j,971,HP,win,32,4,HP,yes,1.5555555555555556,0.5,0.5,1
103,29,male,South African,exp,4,12,catch,yes,902,mixed,j,915,loss,0,325,0.8,0,0.3,20,HP-LP,j,1134,LP,no-win,0,6,LP,yes,-2,0.5,0.5,0
103,29,male,South African,exp,4,14,catch,yes,436,mixed,f,553,win,0,353,0.8,50,0.2,30,LP-HP,j,911,HP,no-win,40,6,HP,yes,1.4782608695652173,-0.5,0.5,1
103,29,male,South African,exp,4,16,exp,no,310,mixed,f,572,win,0,373,0.7,10,0.3,30,HP-LP,f,2071,HP,win,7,9,LP,no,-0.25,-0.5,-0.5,1
103,29,male,South African,exp,4,18,exp,yes,481,mixed,f,1203,win,0,368,0.6,20,0.4,50,LP-HP,j,998,HP,win,12,20,LP,no,-0.5,-0.5,0.5,1
103,29,male,South African,exp,4,20,exp,no,421,mixed,f,528,win,0,295,0.7,10,0.3,30,LP-HP,f,1581,LP,win,7,9,LP,yes,-0.25,-0.5,-0.5,0
103,29,male,South African,exp,4,22,exp,yes,475,mixed,j,560,loss,1,520,0.7,10,0.3,30,LP-HP,j,775,HP,win,7,9,LP,no,-0.25,0.5,0.5,1
103,29,male,South African,exp,4,24,exp,yes,665,mixed,f,520,win,0,490,0.7,20,0.3,30,HP-LP,f,1330,HP,win,14,9,HP,yes,0.43478260869565216,-0.5,0.5,1
103,29,male,South African,exp,4,26,exp,yes,740,mixed,j,792,loss,0,311,0.6,20,0.4,50,HP-LP,j,1601,LP,no-win,12,20,LP,yes,-0.5,0.5,0.5,0
103,29,male,South African,exp,4,28,catch,yes,360,mixed,f,483,win,0,518,0.7,0,0.4,30,HP-LP,j,1405,LP,no-win,0,12,LP,yes,-2,-0.5,0.5,0
103,29,male,South African,exp,4,30,exp,no,582,mixed,f,555,loss,0,444,0.6,30,0.4,50,HP-LP,f,2412,HP,win,18,20,LP,no,-0.10526315789473684,0.5,-0.5,1
103,29,male,South African,exp,4,32,exp,yes,406,mixed,f,944,loss,0,494,0.7,30,0.3,40,LP-HP,j,1759,HP,win,21,12,HP,yes,0.5454545454545454,0.5,0.5,1
103,29,male,South African,exp,4,34,exp,no,487,mixed,f,531,loss,0,301,0.8,10,0.2,20,HP-LP,f,1755,HP,win,8,4,HP,yes,0.6666666666666666,0.5,-0.5,1
103,29,male,South African,exp,4,36,catch,no,434,mixed,j,560,loss,0,240,0.7,30,0.3,10,LP-HP,j,703,HP,no-win,21,3,HP,yes,1.5,0.5,-0.5,1
103,29,male,South African,exp,4,38,exp,no,346,mixed,f,526,loss,0,313,0.7,20,0.3,30,LP-HP,j,1373,HP,no-win,14,9,HP,yes,0.43478260869565216,0.5,-0.5,1
103,29,male,South African,exp,4,40,catch,no,617,mixed,f,466,loss,0,357,0.8,50,0.2,30,LP-HP,j,770,HP,win,40,6,HP,yes,1.4782608695652173,0.5,-0.5,1
103,29,male,South African,exp,4,42,exp,no,504,mixed,f,601,loss,0,436,0.7,30,0.3,40,LP-HP,j,856,HP,win,21,12,HP,yes,0.5454545454545454,0.5,-0.5,1
103,29,male,South African,exp,4,44,exp,yes,379,mixed,j,647,win,0,434,0.8,10,0.2,20,LP-HP,j,1312,HP,win,8,4,HP,yes,0.6666666666666666,-0.5,0.5,1
103,29,male,South African,exp,4,46,exp,yes,487,mixed,f,527,loss,0,513,0.7,30,0.3,40,HP-LP,f,987,HP,no-win,21,12,HP,yes,0.5454545454545454,0.5,0.5,1
103,29,male,South African,exp,4,48,exp,no,525,mixed,j,481,win,0,393,0.7,20,0.3,30,HP-LP,f,1053,HP,win,14,9,HP,yes,0.43478260869565216,-0.5,-0.5,1
103,29,male,South African,exp,4,50,exp,yes,396,mixed,j,521,win,0,870,0.7,10,0.3,50,LP-HP,j,2011,HP,no-win,7,15,LP,no,-0.7272727272727273,-0.5,0.5,1
103,29,male,South African,exp,4,52,exp,no,439,mixed,f,517,loss,0,356,0.6,10,0.4,40,HP-LP,j,1594,LP,win,6,16,LP,yes,-0.9090909090909091,0.5,-0.5,0
103,29,male,South African,exp,5,2,catch,no,7058,mixed,f,968,loss,0,665,0.8,0,0.3,20,LP-HP,j,773,HP,win,0,6,LP,no,-2,0.5,-0.5,1
103,29,male,South African,exp,5,4,exp,yes,485,mixed,j,707,loss,0,599,0.7,10,0.3,30,HP-LP,j,1640,LP,no-win,7,9,LP,yes,-0.25,0.5,0.5,0
103,29,male,South African,exp,5,6,exp,yes,392,mixed,f,728,win,0,363,0.7,10,0.3,30,HP-LP,f,677,HP,no-win,7,9,LP,no,-0.25,-0.5,0.5,1
103,29,male,South African,exp,5,8,catch,yes,552,mixed,j,757,loss,0,435,0.6,0,0.2,40,LP-HP,f,896,LP,no-win,0,8,LP,yes,-2,0.5,0.5,0
103,29,male,South African,exp,5,10,exp,yes,759,mixed,f,601,win,0,315,0.6,10,0.4,40,LP-HP,f,1590,LP,win,6,16,LP,yes,-0.9090909090909091,-0.5,0.5,0
103,29,male,South African,exp,5,12,exp,no,456,mixed,j,917,win,0,261,0.7,20,0.3,30,LP-HP,j,886,HP,win,14,9,HP,yes,0.43478260869565216,-0.5,-0.5,1
103,29,male,South African,exp,5,14,catch,no,569,mixed,f,502,win,0,336,0.7,30,0.3,10,HP-LP,f,986,HP,win,21,3,HP,yes,1.5,-0.5,-0.5,1
103,29,male,South African,exp,5,16,exp,no,387,mixed,f,1138,loss,1,300,0.8,10,0.2,20,LP-HP,j,534,HP,no-win,8,4,HP,yes,0.6666666666666666,0.5,-0.5,1
103,29,male,South African,exp,5,18,exp,no,263,mixed,f,501,loss,0,40,0.6,20,0.4,50,HP-LP,j,1035,LP,no-win,12,20,LP,yes,-0.5,0.5,-0.5,0
103,29,male,South African,exp,5,20,exp,yes,494,mixed,f,502,loss,0,506,0.6,30,0.4,50,HP-LP,f,1750,HP,win,18,20,LP,no,-0.10526315789473684,0.5,0.5,1
103,29,male,South African,exp,5,22,exp,no,364,mixed,j,745,win,0,345,0.6,20,0.4,50,HP-LP,f,1178,HP,win,12,20,LP,no,-0.5,-0.5,-0.5,1
103,29,male,South African,exp,5,24,exp,yes,539,mixed,j,676,win,0,435,0.7,10,0.3,50,HP-LP,j,1096,LP,no-win,7,15,LP,yes,-0.7272727272727273,-0.5,0.5,0
103,29,male,South African,exp,5,26,exp,no,517,mixed,f,495,win,0,319,0.6,40,0.4,50,HP-LP,f,856,HP,win,24,20,HP,yes,0.18181818181818182,-0.5,-0.5,1
103,29,male,South African,exp,5,28,exp,no,643,mixed,j,583,win,0,345,0.6,30,0.4,50,LP-HP,j,1093,HP,win,18,20,LP,no,-0.10526315789473684,-0.5,-0.5,1
103,29,male,South African,exp,5,30,catch,yes,604,mixed,f,496,win,0,429,0.7,30,0.3,10,LP-HP,j,739,HP,win,21,3,HP,yes,1.5,-0.5,0.5,1
103,29,male,South African,exp,5,32,catch,no,431,mixed,f,503,loss,0,316,0.8,40,0.2,20,HP-LP,f,747,HP,win,32,4,HP,yes,1.5555555555555556,0.5,-0.5,1
103,29,male,South African,exp,5,34,exp,no,355,mixed,j,571,loss,0,259,0.6,40,0.4,50,HP-LP,f,1118,HP,no-win,24,20,HP,yes,0.18181818181818182,0.5,-0.5,1
103,29,male,South African,exp,5,36,exp,yes,616,mixed,j,560,win,0,593,0.6,40,0.4,50,HP-LP,f,902,HP,no-win,24,20,HP,yes,0.18181818181818182,-0.5,0.5,1
103,29,male,South African,exp,5,38,exp,yes,532,mixed,j,621,win,0,440,0.6,20,0.4,50,HP-LP,f,325,HP,win,12,20,LP,no,-0.5,-0.5,0.5,1
103,29,male,South African,exp,5,40,exp,yes,2926,mixed,j,652,loss,0,384,0.8,10,0.2,20,HP-LP,f,882,HP,win,8,4,HP,yes,0.6666666666666666,0.5,0.5,1
103,29,male,South African,exp,5,42,exp,yes,407,mixed,j,525,win,0,576,0.7,30,0.3,40,HP-LP,f,772,HP,win,21,12,HP,yes,0.5454545454545454,-0.5,0.5,1
103,29,male,South African,exp,5,44,exp,yes,625,mixed,j,557,win,0,328,0.7,30,0.3,40,LP-HP,j,793,HP,win,21,12,HP,yes,0.5454545454545454,-0.5,0.5,1
103,29,male,South African,exp,5,46,catch,no,483,mixed,f,682,loss,0,311,0.6,0,0.2,40,HP-LP,j,1142,LP,no-win,0,8,LP,yes,-2,0.5,-0.5,0
103,29,male,South African,exp,5,48,exp,yes,446,mixed,f,622,loss,0,413,0.8,20,0.2,30,LP-HP,j,1108,HP,win,16,6,HP,yes,0.9090909090909091,0.5,0.5,1
103,29,male,South African,exp,5,50,exp,no,622,mixed,f,510,loss,0,346,0.8,20,0.2,30,HP-LP,f,856,HP,win,16,6,HP,yes,0.9090909090909091,0.5,-0.5,1
103,29,male,South African,exp,5,52,exp,no,712,mixed,f,1119,win,0,388,0.6,30,0.4,50,HP-LP,f,2710,HP,win,18,20,LP,no,-0.10526315789473684,-0.5,-0.5,1
103,29,male,South African,exp,6,2,catch,yes,2144,mixed,f,491,loss,0,618,0.7,30,0.3,10,HP-LP,f,1192,HP,no-win,21,3,HP,yes,1.5,0.5,0.5,1
103,29,male,South African,exp,6,4,exp,yes,427,mixed,j,651,loss,0,478,0.8,10,0.2,20,LP-HP,j,926,HP,win,8,4,HP,yes,0.6666666666666666,0.5,0.5,1
103,29,male,South African,exp,6,6,exp,no,320,mixed,f,436,win,0,256,0.8,20,0.2,30,HP-LP,f,814,HP,win,16,6,HP,yes,0.9090909090909091,-0.5,-0.5,1
103,29,male,South African,exp,6,8,exp,yes,416,mixed,j,590,win,0,408,0.6,10,0.4,40,HP-LP,f,331,HP,win,6,16,LP,no,-0.9090909090909091,-0.5,0.5,1
103,29,male,South African,exp,6,10,exp,yes,584,mixed,j,495,loss,0,467,0.6,10,0.4,40,HP-LP,f,1750,HP,win,6,16,LP,no,-0.9090909090909091,0.5,0.5,1
103,29,male,South African,exp,6,12,exp,yes,500,mixed,j,474,loss,0,361,0.7,20,0.3,30,LP-HP,j,701,HP,win,14,9,HP,yes,0.43478260869565216,0.5,0.5,1
103,29,male,South African,exp,6,14,exp,yes,674,mixed,f,648,win,0,1486,0.8,20,0.2,30,LP-HP,j,696,HP,win,16,6,HP,yes,0.9090909090909091,-0.5,0.5,1
103,29,male,South African,exp,6,16,exp,yes,441,mixed,f,451,win,0,550,0.6,40,0.4,50,LP-HP,j,1022,HP,win,24,20,HP,yes,0.18181818181818182,-0.5,0.5,1
103,29,male,South African,exp,6,18,exp,no,489,mixed,f,454,win,0,433,0.6,10,0.4,40,LP-HP,f,1709,LP,win,6,16,LP,yes,-0.9090909090909091,-0.5,-0.5,0
103,29,male,South African,exp,6,20,exp,no,370,mixed,f,512,win,0,337,0.8,10,0.2,20,LP-HP,j,922,HP,win,8,4,HP,yes,0.6666666666666666,-0.5,-0.5,1
103,29,male,South African,exp,6,22,exp,no,306,mixed,f,541,loss,0,307,0.7,30,0.3,40,HP-LP,f,606,HP,win,21,12,HP,yes,0.5454545454545454,0.5,-0.5,1
103,29,male,South African,exp,6,24,catch,yes,862,mixed,j,527,loss,0,269,0.8,50,0.2,30,HP-LP,f,650,HP,win,40,6,HP,yes,1.4782608695652173,0.5,0.5,1
103,29,male,South African,exp,6,26,catch,yes,396,mixed,j,453,win,1,515,0.8,40,0.2,20,HP-LP,f,350,HP,win,32,4,HP,yes,1.5555555555555556,-0.5,0.5,1
103,29,male,South African,exp,6,28,exp,no,390,mixed,j,797,win,0,310,0.7,30,0.3,40,LP-HP,j,992,HP,win,21,12,HP,yes,0.5454545454545454,-0.5,-0.5,1
103,29,male,South African,exp,6,30,exp,no,324,mixed,f,567,loss,0,296,0.7,10,0.3,50,HP-LP,f,1058,HP,no-win,7,15,LP,no,-0.7272727272727273,0.5,-0.5,1
103,29,male,South African,exp,6,32,exp,no,494,mixed,j,450,win,0,312,0.8,20,0.2,30,LP-HP,j,1907,HP,win,16,6,HP,yes,0.9090909090909091,-0.5,-0.5,1
103,29,male,South African,exp,6,34,exp,no,743,mixed,f,551,loss,0,3,0.6,10,0.4,40,LP-HP,j,1636,HP,win,6,16,LP,no,-0.9090909090909091,0.5,-0.5,1
103,29,male,South African,exp,6,36,exp,yes,411,mixed,f,461,loss,0,385,0.7,20,0.3,30,HP-LP,f,804,HP,win,14,9,HP,yes,0.43478260869565216,0.5,0.5,1
103,29,male,South African,exp,6,38,exp,no,640,mixed,j,647,loss,0,303,0.6,20,0.4,50,LP-HP,f,315,LP,win,12,20,LP,yes,-0.5,0.5,-0.5,0
103,29,male,South African,exp,6,40,exp,no,637,mixed,j,736,loss,0,281,0.8,20,0.2,30,LP-HP,f,408,LP,no-win,16,6,HP,no,0.9090909090909091,0.5,-0.5,0
103,29,male,South African,exp,6,42,exp,no,431,mixed,j,530,loss,0,313,0.7,10,0.3,50,LP-HP,f,1319,LP,no-win,7,15,LP,yes,-0.7272727272727273,0.5,-0.5,0
103,29,male,South African,exp,6,44,catch,yes,320,mixed,f,1734,win,0,478,0.8,0,0.3,20,LP-HP,f,1222,LP,no-win,0,6,LP,yes,-2,-0.5,0.5,0
103,29,male,South African,exp,6,46,exp,yes,742,mixed,j,532,loss,0,359,0.6,10,0.4,40,LP-HP,f,1645,LP,win,6,16,LP,yes,-0.9090909090909091,0.5,0.5,0
103,29,male,South African,exp,6,48,catch,yes,747,mixed,j,1262,loss,0,832,0.7,0,0.4,30,LP-HP,f,892,LP,no-win,0,12,LP,yes,-2,0.5,0.5,0
103,29,male,South African,exp,6,50,exp,yes,723,mixed,j,1385,win,0,513,0.7,10,0.3,30,LP-HP,j,962,HP,win,7,9,LP,no,-0.25,-0.5,0.5,1
103,29,male,South African,exp,6,52,catch,no,484,mixed,j,936,loss,0,696,0.7,0,0.4,30,HP-LP,j,1089,LP,win,0,12,LP,yes,-2,0.5,-0.5,0
104,24,male,Finland,practice_game1,1,1,practice,na,2161,mixed,j,2230,win,0,0,0,0,0,0,na,na,0,na,na,0,0,LP,no,NA,-0.5,-0.5,0
104,24,male,Finland,practice_game1,1,2,practice,na,1241,mixed,j,1495,win,0,0,0,0,0,0,na,na,0,na,na,0,0,LP,no,NA,-0.5,-0.5,0
104,24,male,Finland,practice_game1,1,3,practice,na,853,mixed,f,747,loss,0,0,0,0,0,0,na,na,0,na,na,0,0,LP,no,NA,0.5,-0.5,0
104,24,male,Finland,practice_game1,1,4,practice,na,3154,mixed,f,1020,loss,0,0,0,0,0,0,na,na,0,na,na,0,0,LP,no,NA,0.5,-0.5,0
104,24,male,Finland,practice_game2,2,1,practice,na,0,na,na,0,na,0,1512,0.8,10,0.2,20,LP-HP,j,3335,HP,win,8,4,HP,yes,0.6666666666666666,-0.5,-0.5,1
104,24,male,Finland,practice_game2,2,2,practice,na,0,na,na,0,na,0,819,0.8,20,0.2,30,HP-LP,f,2066,HP,win,16,6,HP,yes,0.9090909090909091,-0.5,-0.5,1
104,24,male,Finland,practice_game2,2,3,practice,na,0,na,na,0,na,0,778,0.6,10,0.4,40,HP-LP,j,4508,LP,no-win,6,16,LP,yes,-0.9090909090909091,-0.5,-0.5,0
104,24,male,Finland,practice_game2,2,4,practice,na,0,na,na,0,na,0,628,0.8,50,0.4,20,LP-HP,j,1509,HP,win,40,8,HP,yes,1.3333333333333333,-0.5,-0.5,1
104,24,male,Finland,practice_game2,2,5,practice,na,0,na,na,0,na,0,705,0.7,10,0.3,50,HP-LP,j,4728,LP,no-win,7,15,LP,yes,-0.7272727272727273,-0.5,-0.5,0
104,24,male,Finland,exp,3,2,exp,yes,1952,mixed,j,1560,loss,0,700,0.6,40,0.4,50,HP-LP,f,6254,HP,no-win,24,20,HP,yes,0.18181818181818182,0.5,0.5,1
104,24,male,Finland,exp,3,4,catch,yes,951,mixed,j,990,loss,0,746,0.8,0,0.3,20,HP-LP,j,1938,LP,win,0,6,LP,yes,-2,0.5,0.5,0
104,24,male,Finland,exp,3,6,exp,yes,870,mixed,j,1007,loss,0,722,0.8,20,0.2,30,HP-LP,f,2499,HP,win,16,6,HP,yes,0.9090909090909091,0.5,0.5,1
104,24,male,Finland,exp,3,8,catch,yes,715,mixed,j,797,loss,0,734,0.7,30,0.3,10,HP-LP,f,1791,HP,win,21,3,HP,yes,1.5,0.5,0.5,1
104,24,male,Finland,exp,3,10,exp,yes,803,mixed,j,910,win,0,743,0.7,10,0.3,50,LP-HP,f,3300,LP,no-win,7,15,LP,yes,-0.7272727272727273,-0.5,0.5,0
104,24,male,Finland,exp,3,12,exp,yes,598,mixed,j,730,win,0,596,0.8,10,0.2,20,HP-LP,f,1662,HP,win,8,4,HP,yes,0.6666666666666666,-0.5,0.5,1
104,24,male,Finland,exp,3,14,exp,no,793,mixed,f,1026,win,0,662,0.6,10,0.4,40,LP-HP,f,1611,LP,win,6,16,LP,yes,-0.9090909090909091,-0.5,-0.5,0
104,24,male,Finland,exp,3,16,exp,yes,923,mixed,j,863,loss,0,943,0.7,10,0.3,30,LP-HP,j,3143,HP,no-win,7,9,LP,no,-0.25,0.5,0.5,1
104,24,male,Finland,exp,3,18,catch,yes,567,mixed,j,829,win,0,555,0.8,50,0.2,30,HP-LP,f,975,HP,win,40,6,HP,yes,1.4782608695652173,-0.5,0.5,1
104,24,male,Finland,exp,3,20,exp,no,788,mixed,j,455,loss,0,596,0.7,10,0.3,50,LP-HP,f,1609,LP,win,7,15,LP,yes,-0.7272727272727273,0.5,-0.5,0
104,24,male,Finland,exp,3,22,exp,yes,554,mixed,f,1185,win,0,607,0.7,30,0.3,40,LP-HP,j,1023,HP,win,21,12,HP,yes,0.5454545454545454,-0.5,0.5,1
104,24,male,Finland,exp,3,24,exp,yes,544,mixed,j,781,loss,0,810,0.7,20,0.3,30,HP-LP,f,2274,HP,win,14,9,HP,yes,0.43478260869565216,0.5,0.5,1
104,24,male,Finland,exp,3,26,exp,no,483,mixed,j,764,win,0,659,0.8,20,0.2,30,HP-LP,f,844,HP,win,16,6,HP,yes,0.9090909090909091,-0.5,-0.5,1
104,24,male,Finland,exp,3,28,exp,no,492,mixed,j,910,loss,0,571,0.6,10,0.4,40,LP-HP,f,1576,LP,no-win,6,16,LP,yes,-0.9090909090909091,0.5,-0.5,0
104,24,male,Finland,exp,3,30,exp,no,512,mixed,j,291,win,0,550,0.8,20,0.2,30,LP-HP,j,912,HP,win,16,6,HP,yes,0.9090909090909091,-0.5,-0.5,1
104,24,male,Finland,exp,3,32,exp,yes,516,mixed,f,717,loss,0,441,0.8,10,0.2,20,HP-LP,j,1888,LP,no-win,8,4,HP,no,0.6666666666666666,0.5,0.5,0
104,24,male,Finland,exp,3,34,catch,no,593,mixed,f,536,win,0,24,0.7,30,0.3,10,HP-LP,f,1201,HP,win,21,3,HP,yes,1.5,-0.5,-0.5,1
104,24,male,Finland,exp,3,36,exp,yes,665,mixed,j,666,win,0,510,0.6,30,0.4,50,LP-HP,f,1349,LP,win,18,20,LP,yes,-0.10526315789473684,-0.5,0.5,0
104,24,male,Finland,exp,3,38,exp,no,530,mixed,j,358,win,0,607,0.7,10,0.3,30,HP-LP,f,2502,HP,no-win,7,9,LP,no,-0.25,-0.5,-0.5,1
104,24,male,Finland,exp,3,40,catch,no,493,mixed,j,584,loss,0,468,0.7,30,0.3,10,LP-HP,j,1122,HP,win,21,3,HP,yes,1.5,0.5,-0.5,1
104,24,male,Finland,exp,3,42,exp,no,513,mixed,f,586,loss,0,557,0.7,20,0.3,30,HP-LP,f,1935,HP,win,14,9,HP,yes,0.43478260869565216,0.5,-0.5,1
104,24,male,Finland,exp,3,44,catch,yes,627,mixed,f,715,win,0,528,0.8,40,0.2,20,HP-LP,j,357,LP,win,32,4,HP,no,1.5555555555555556,-0.5,0.5,0
104,24,male,Finland,exp,3,46,exp,no,449,mixed,f,440,loss,0,488,0.7,10,0.3,30,HP-LP,j,1532,LP,win,7,9,LP,yes,-0.25,0.5,-0.5,0
104,24,male,Finland,exp,3,48,exp,no,333,mixed,f,471,win,0,369,0.7,20,0.3,30,LP-HP,j,436,HP,win,14,9,HP,yes,0.43478260869565216,-0.5,-0.5,1
104,24,male,Finland,exp,3,50,exp,yes,480,mixed,f,912,win,0,1152,0.7,20,0.3,30,LP-HP,j,1966,HP,win,14,9,HP,yes,0.43478260869565216,-0.5,0.5,1
104,24,male,Finland,exp,3,52,exp,yes,709,mixed,f,505,loss,0,658,0.7,30,0.3,40,LP-HP,j,1724,HP,no-win,21,12,HP,yes,0.5454545454545454,0.5,0.5,1
104,24,male,Finland,exp,4,2,exp,yes,993,mixed,j,829,win,0,604,0.7,10,0.3,30,HP-LP,j,1856,LP,no-win,7,9,LP,yes,-0.25,-0.5,0.5,0
104,24,male,Finland,exp,4,4,catch,yes,445,mixed,j,782,win,0,538,0.8,0,0.3,20,LP-HP,f,1788,LP,no-win,0,6,LP,yes,-2,-0.5,0.5,0
104,24,male,Finland,exp,4,6,exp,no,396,mixed,j,831,loss,0,418,0.8,10,0.2,20,HP-LP,f,1204,HP,win,8,4,HP,yes,0.6666666666666666,0.5,-0.5,1
104,24,male,Finland,exp,4,8,exp,yes,584,mixed,j,568,loss,0,458,0.7,20,0.3,30,LP-HP,j,1073,HP,no-win,14,9,HP,yes,0.43478260869565216,0.5,0.5,1
104,24,male,Finland,exp,4,10,exp,no,407,mixed,j,601,loss,0,467,0.6,40,0.4,50,LP-HP,f,1136,LP,win,24,20,HP,no,0.18181818181818182,0.5,-0.5,0
104,24,male,Finland,exp,4,12,exp,no,329,mixed,j,634,win,0,450,0.6,40,0.4,50,LP-HP,f,1025,LP,no-win,24,20,HP,no,0.18181818181818182,-0.5,-0.5,0
104,24,male,Finland,exp,4,14,exp,yes,387,mixed,j,568,loss,0,476,0.6,20,0.4,50,HP-LP,j,1444,LP,no-win,12,20,LP,yes,-0.5,0.5,0.5,0
104,24,male,Finland,exp,4,16,exp,yes,253,mixed,j,554,loss,0,503,0.8,20,0.2,30,LP-HP,j,1200,HP,win,16,6,HP,yes,0.9090909090909091,0.5,0.5,1
104,24,male,Finland,exp,4,18,exp,yes,1050,mixed,j,1677,loss,0,632,0.6,30,0.4,50,LP-HP,f,910,LP,no-win,18,20,LP,yes,-0.10526315789473684,0.5,0.5,0
104,24,male,Finland,exp,4,20,exp,no,343,mixed,j,521,loss,0,434,0.8,10,0.2,20,LP-HP,j,684,HP,win,8,4,HP,yes,0.6666666666666666,0.5,-0.5,1
104,24,male,Finland,exp,4,22,exp,yes,275,mixed,j,520,loss,1,678,0.8,10,0.2,20,LP-HP,j,1141,HP,win,8,4,HP,yes,0.6666666666666666,0.5,0.5,1
104,24,male,Finland,exp,4,24,exp,no,413,mixed,j,649,loss,0,699,0.7,10,0.3,30,LP-HP,j,927,HP,win,7,9,LP,no,-0.25,0.5,-0.5,1
104,24,male,Finland,exp,4,26,exp,no,352,mixed,j,551,win,0,426,0.7,20,0.3,30,HP-LP,f,1328,HP,no-win,14,9,HP,yes,0.43478260869565216,-0.5,-0.5,1
104,24,male,Finland,exp,4,28,exp,no,200,mixed,j,405,loss,0,596,0.6,20,0.4,50,HP-LP,j,3479,LP,no-win,12,20,LP,yes,-0.5,0.5,-0.5,0
104,24,male,Finland,exp,4,30,exp,no,707,mixed,j,652,win,1,497,0.6,10,0.4,40,HP-LP,j,1269,LP,win,6,16,LP,yes,-0.9090909090909091,-0.5,-0.5,0
104,24,male,Finland,exp,4,32,exp,no,450,mixed,j,649,win,0,431,0.8,10,0.2,20,LP-HP,j,618,HP,win,8,4,HP,yes,0.6666666666666666,-0.5,-0.5,1
104,24,male,Finland,exp,4,34,exp,no,479,mixed,f,536,loss,0,443,0.8,20,0.2,30,LP-HP,j,651,HP,win,16,6,HP,yes,0.9090909090909091,0.5,-0.5,1
